* Measurement data measured by REW V5.20.13
* Source: Trace Arithmetic result A + B
* Format: Trace Arithmetic result A + B
* Dated: Feb 21, 2023 4:29:18 PM
* REW Settings:
*  C-weighting compensation: Off
*  Target level: 75.0 dB
* Note: Trace Arithmetic A plus B A = Port Near Field B = Woofer Near Field
* Measurement: Port and Woofer Near Field
* Smoothing: 1/24 octave
* Frequency Step: 1/96 octave
* Start Frequency: 20.000 Hz
*
* Freq(Hz)	SPL(dB)	Phase(degrees)
20.000000	99.704	119.4727
20.144928	99.909	118.3771
20.290907	100.109	117.2490
20.437943	100.306	116.0971
20.586044	100.497	114.9423
20.735220	100.682	113.7774
20.885475	100.864	112.6299
21.036821	101.042	111.5064
21.189262	101.219	110.4103
21.342808	101.397	109.3588
21.497467	101.577	108.3482
21.653246	101.764	107.3709
21.810154	101.958	106.4342
21.968201	102.162	105.5122
22.127390	102.376	104.5962
22.287735	102.601	103.6766
22.449242	102.836	102.7223
22.611917	103.081	101.7382
22.775772	103.332	100.7020
22.940815	103.590	99.6128
23.107054	103.851	98.4722
23.274498	104.114	97.2766
23.443153	104.379	96.0347
23.613033	104.646	94.7508
23.784142	104.915	93.4243
23.956491	105.185	92.0602
24.130091	105.457	90.6522
24.304947	105.732	89.1929
24.481071	106.007	87.6790
24.658470	106.282	86.0943
24.837156	106.555	84.4397
25.017136	106.822	82.7089
25.198421	107.083	80.9038
25.381020	107.333	79.0421
25.564941	107.572	77.1255
25.750195	107.800	75.1914
25.936790	108.016	73.2405
26.124741	108.224	71.3083
26.314051	108.425	69.3919
26.504732	108.625	67.5005
26.696796	108.825	65.6223
26.890253	109.029	63.7315
27.085112	109.236	61.8072
27.281382	109.447	59.8050
27.479073	109.656	57.7054
27.678198	109.860	55.4735
27.878765	110.049	53.1162
28.080786	110.220	50.6215
28.284271	110.362	48.0468
28.489231	110.475	45.4012
28.695675	110.555	42.7846
28.903616	110.602	40.2219
29.113064	110.622	37.8097
29.324028	110.622	35.5730
29.536524	110.609	33.5619
29.750557	110.599	31.7603
29.966141	110.599	30.1681
30.183289	110.622	28.7043
30.402010	110.669	27.3249
30.622314	110.743	25.9457
30.844217	110.835	24.5018
31.067726	110.943	22.9595
31.292856	111.051	21.2928
31.519617	111.156	19.5220
31.748020	111.249	17.6648
31.978081	111.328	15.7789
32.209808	111.394	13.8855
32.443211	111.449	12.0293
32.678310	111.496	10.2135
32.915108	111.538	8.4434
33.153625	111.577	6.7006
33.393871	111.612	4.9712
33.635857	111.642	3.2426
33.879597	111.662	1.5119
34.125103	111.669	-0.2032
34.372387	111.662	-1.8860
34.621464	111.639	-3.4924
34.872345	111.604	-4.9969
35.125042	111.560	-6.3770
35.379574	111.513	-7.6204
35.635948	111.470	-8.7457
35.894180	111.434	-9.7720
36.154285	111.410	-10.7387
36.416275	111.396	-11.6894
36.680161	111.391	-12.6493
36.945961	111.390	-13.6421
37.213688	111.391	-14.6763
37.483353	111.388	-15.7434
37.754974	111.381	-16.8330
38.028561	111.369	-17.9286
38.304131	111.351	-19.0126
38.581699	111.329	-20.0764
38.861279	111.306	-21.1159
39.142883	111.284	-22.1313
39.426529	111.264	-23.1310
39.712231	111.248	-24.1248
40.000000	111.235	-25.1218
40.289856	111.225	-26.1306
40.581814	111.217	-27.1567
40.875885	111.210	-28.2001
41.172089	111.203	-29.2566
41.470440	111.195	-30.3199
41.770950	111.186	-31.3827
42.073643	111.176	-32.4380
42.378525	111.167	-33.4812
42.685616	111.158	-34.5118
42.994934	111.151	-35.5316
43.306492	111.146	-36.5440
43.620308	111.142	-37.5529
43.936401	111.139	-38.5614
44.254780	111.136	-39.5710
44.575470	111.133	-40.5812
44.898483	111.130	-41.5901
45.223835	111.126	-42.5955
45.551544	111.121	-43.5959
45.881630	111.116	-44.5918
46.214108	111.110	-45.5850
46.548996	111.105	-46.5789
46.886307	111.099	-47.5767
47.226067	111.093	-48.5797
47.568283	111.085	-49.5858
47.912983	111.076	-50.5900
48.260181	111.065	-51.5852
48.609894	111.053	-52.5657
48.962143	111.043	-53.5289
49.316940	111.036	-54.4767
49.674313	111.032	-55.4155
50.034271	111.032	-56.3534
50.396843	111.035	-57.2977
50.762039	111.042	-58.2524
51.129883	111.049	-59.2173
51.500389	111.058	-60.1883
51.873581	111.066	-61.1600
52.249481	111.075	-62.1275
52.628101	111.084	-63.0873
53.009464	111.093	-64.0381
53.393593	111.103	-64.9802
53.780506	111.114	-65.9149
54.170223	111.125	-66.8441
54.562763	111.136	-67.7695
54.958145	111.148	-68.6932
55.356396	111.159	-69.6169
55.757530	111.171	-70.5432
56.161572	111.182	-71.4740
56.568542	111.191	-72.4110
56.978462	111.200	-73.3536
57.391350	111.206	-74.2986
57.807232	111.210	-75.2399
58.226128	111.213	-76.1709
58.648056	111.215	-77.0879
59.073048	111.218	-77.9916
59.501114	111.223	-78.8881
59.932281	111.230	-79.7845
60.366577	111.237	-80.6852
60.804020	111.244	-81.5886
61.244629	111.251	-82.4897
61.688435	111.257	-83.3834
62.135452	111.264	-84.2681
62.585712	111.272	-85.1470
63.039234	111.280	-86.0264
63.496040	111.290	-86.9136
63.956161	111.299	-87.8162
64.419617	111.307	-88.7391
64.886421	111.310	-89.6801
65.356621	111.308	-90.6276
65.830215	111.299	-91.5609
66.307251	111.286	-92.4596
66.787743	111.272	-93.3139
67.271713	111.260	-94.1301
67.759193	111.255	-94.9286
68.250206	111.255	-95.7328
68.744774	111.260	-96.5597
69.242928	111.267	-97.4158
69.744690	111.276	-98.3031
70.250084	111.286	-99.2274
70.759148	111.294	-100.2037
71.271896	111.297	-101.2443
71.788361	111.288	-102.3405
72.308571	111.262	-103.4536
72.832550	111.216	-104.5214
73.360321	111.156	-105.4878
73.891922	111.089	-106.3279
74.427376	111.023	-107.0460
74.966705	110.964	-107.6592
75.509949	110.915	-108.1896
76.057121	110.881	-108.6659
76.608261	110.865	-109.1357
77.163399	110.863	-109.6494
77.722557	110.871	-110.2427
78.285767	110.879	-110.9196
78.853058	110.883	-111.6571
79.424461	110.878	-112.4233
80.000000	110.866	-113.1851
80.579712	110.847	-113.9166
81.163628	110.826	-114.6007
81.751770	110.806	-115.2347
82.344177	110.790	-115.8306
82.940880	110.781	-116.4117
83.541901	110.779	-117.0020
84.147285	110.782	-117.6197
84.757050	110.788	-118.2740
85.371231	110.794	-118.9686
85.989868	110.800	-119.7067
86.612984	110.801	-120.4893
87.240616	110.794	-121.3032
87.872803	110.777	-122.1155
88.509560	110.750	-122.8821
89.150940	110.720	-123.5778
89.796967	110.695	-124.2140
90.447670	110.675	-124.8277
91.103088	110.661	-125.4521
91.763260	110.649	-126.0958
92.428215	110.636	-126.7504
93.097992	110.623	-127.4097
93.772614	110.612	-128.0830
94.452133	110.603	-128.7948
95.136566	110.591	-129.5721
95.825966	110.568	-130.4150
96.520363	110.524	-131.2693
97.219788	110.459	-132.0328
97.924286	110.382	-132.6128
98.633881	110.315	-132.9937
99.348625	110.273	-133.2520
100.068542	110.263	-133.5114
100.793686	110.278	-133.8833
101.524078	110.304	-134.4354
102.259766	110.323	-135.1781
103.000778	110.321	-136.0589
103.747162	110.288	-136.9727
104.498962	110.227	-137.8026
105.256203	110.152	-138.4733
106.018929	110.076	-138.9792
106.787186	110.010	-139.3701
107.561012	109.960	-139.7132
108.340446	109.921	-140.0610
109.125526	109.888	-140.4377
109.916290	109.857	-140.8372
110.712791	109.823	-141.2315
111.515060	109.788	-141.5908
112.323143	109.758	-141.9064
113.137085	109.736	-142.1988
113.956924	109.724	-142.5023
114.782700	109.719	-142.8430
115.614464	109.716	-143.2291
116.452255	109.714	-143.6552
117.296112	109.711	-144.1124
118.146095	109.706	-144.5966
119.002228	109.698	-145.1074
119.864563	109.686	-145.6404
120.733154	109.667	-146.1761
121.608040	109.643	-146.6850
122.489258	109.617	-147.1510
123.376869	109.595	-147.5890
124.270905	109.577	-148.0288
125.171425	109.560	-148.4852
126.078468	109.542	-148.9479
126.992081	109.524	-149.4037
127.912323	109.507	-149.8566
128.839233	109.493	-150.3217
129.772842	109.479	-150.8043
130.713242	109.463	-151.2945
131.660431	109.448	-151.7833
132.614502	109.434	-152.2772
133.575485	109.422	-152.7944
134.543427	109.412	-153.3535
135.518387	109.398	-153.9648
136.500412	109.379	-154.6313
137.489548	109.350	-155.3444
138.485855	109.306	-156.0800
139.489380	109.243	-156.7930
140.500168	109.162	-157.4095
141.518295	109.069	-157.8499
142.543793	108.984	-158.0985
143.576721	108.923	-158.2479
144.617142	108.884	-158.4359
145.665100	108.851	-158.7200
146.720642	108.810	-159.0374
147.783844	108.766	-159.3039
148.854752	108.729	-159.5236
149.933411	108.702	-159.7677
151.019897	108.676	-160.0679
152.114243	108.644	-160.3765
153.216522	108.609	-160.6302
154.326797	108.583	-160.8217
155.445114	108.575	-161.0145
156.571533	108.581	-161.3018
157.706116	108.590	-161.7407
158.848923	108.584	-162.3052
160.000000	108.556	-162.8953
161.159424	108.510	-163.4030
162.327255	108.464	-163.7926
163.503540	108.430	-164.1277
164.688354	108.410	-164.5187
165.881760	108.391	-165.0388
167.083801	108.353	-165.6658
168.294571	108.283	-166.2732
169.514099	108.185	-166.6936
170.742462	108.083	-166.8442
171.979736	108.001	-166.7932
173.225967	107.948	-166.6807
174.481232	107.917	-166.5998
175.745605	107.901	-166.5732
177.019119	107.897	-166.6010
178.301880	107.901	-166.6909
179.593933	107.912	-166.8508
180.895340	107.923	-167.0784
182.206177	107.932	-167.3612
183.526520	107.936	-167.6813
184.856430	107.937	-168.0300
186.195984	107.934	-168.4126
187.545227	107.925	-168.8250
188.904266	107.906	-169.2269
190.273132	107.883	-169.5680
191.651932	107.863	-169.8453
193.040726	107.854	-170.1131
194.439575	107.854	-170.4395
195.848572	107.853	-170.8669
197.267761	107.841	-171.3851
198.697250	107.807	-171.9127
200.137085	107.754	-172.3328
201.587372	107.700	-172.5875
203.048157	107.661	-172.7318
204.519531	107.638	-172.8679
206.001556	107.624	-173.0460
207.494324	107.613	-173.2600
208.997925	107.604	-173.5049
210.512405	107.595	-173.7898
212.037857	107.582	-174.1124
213.574371	107.561	-174.4431
215.122025	107.532	-174.7325
216.680893	107.502	-174.9474
218.251053	107.480	-175.1021
219.832581	107.470	-175.2530
221.425583	107.468	-175.4496
223.030121	107.466	-175.6988
224.646286	107.463	-175.9822
226.274170	107.454	-176.2852
227.913849	107.440	-176.5822
229.565399	107.423	-176.8334
231.228928	107.410	-177.0323
232.904510	107.410	-177.2354
234.592224	107.419	-177.5182
236.292191	107.425	-177.9139
238.004456	107.413	-178.3795
239.729126	107.377	-178.8005
241.466309	107.328	-179.0592
243.216080	107.288	-179.1161
244.978516	107.280	-179.0457
246.753738	107.314	-179.0166
248.541809	107.381	-179.2115
250.342850	107.455	-179.7375
252.156937	107.507	179.4102
253.984161	107.517	178.3291
255.824646	107.470	177.1788
257.678467	107.370	176.1389
259.545685	107.232	175.3365
261.426483	107.078	174.7827
263.320862	106.917	174.3906
265.229004	106.741	174.0882
267.150970	106.523	173.9833
269.086853	106.255	174.4022
271.036774	105.977	175.6469
273.000824	105.769	177.7311
274.979095	105.711	-179.6225
276.971710	105.846	-176.9013
278.978760	106.156	-174.7307
281.000336	106.547	-173.6270
283.036591	106.912	-173.6725
285.087585	107.188	-174.5051
287.153442	107.374	-175.6553
289.234283	107.491	-176.8403
291.330200	107.557	-177.9611
293.441284	107.577	-178.9310
295.567688	107.568	-179.6290
297.709503	107.566	179.9622
299.866821	107.596	179.6719
302.039795	107.658	179.2538
304.228485	107.721	178.5509
306.433044	107.747	177.5925
308.653595	107.712	176.5928
310.890228	107.623	175.8138
313.143066	107.507	175.3876
315.412231	107.393	175.3012
317.697845	107.297	175.4891
320.000000	107.233	175.8746
322.318848	107.210	176.3442
324.654510	107.226	176.7324
327.007080	107.257	176.9190
329.376709	107.273	176.9711
331.763519	107.268	177.0997
334.167603	107.271	177.4203
336.589142	107.310	177.8101
339.028198	107.384	178.0358
341.484924	107.460	177.9751
343.959473	107.504	177.7269
346.451935	107.510	177.5446
348.962463	107.507	177.6210
351.491211	107.536	177.8868
354.038239	107.607	178.0587
356.603760	107.690	177.9271
359.187866	107.743	177.5542
361.790680	107.756	177.1632
364.412354	107.747	176.8989
367.053040	107.734	176.7524
369.712860	107.722	176.6567
372.391968	107.705	176.5934
375.090454	107.679	176.6279
377.808533	107.660	176.8182
380.546265	107.666	177.0852
383.303864	107.695	177.2570
386.081451	107.725	177.2462
388.879150	107.735	177.1136
391.697144	107.714	176.9991
394.535522	107.670	177.0394
397.394501	107.623	177.3165
400.274170	107.600	177.8217
403.174744	107.624	178.4033
406.096313	107.692	178.7902
409.039062	107.765	178.8140
412.003113	107.801	178.5787
414.988647	107.791	178.3225
417.995850	107.747	178.2254
421.024811	107.694	178.3525
424.075714	107.651	178.6576
427.148743	107.626	179.0446
430.244049	107.618	179.4424
433.361786	107.621	179.8126
436.502106	107.631	-179.8549
439.665161	107.649	-179.5592
442.851166	107.678	-179.3790
446.060242	107.698	-179.4380
449.292572	107.666	-179.6450
452.548340	107.563	-179.5729
455.827698	107.442	-178.8170
459.130798	107.403	-177.5112
462.457855	107.487	-176.3129
465.809021	107.629	-175.8047
469.184448	107.727	-175.9884
472.584381	107.731	-176.3680
476.008911	107.667	-176.4238
479.458252	107.598	-175.9845
482.932617	107.582	-175.2847
486.432159	107.619	-174.7049
489.957031	107.673	-174.4236
493.507477	107.715	-174.3975
497.083618	107.730	-174.5449
500.685699	107.708	-174.7689
504.313873	107.641	-174.8997
507.968323	107.543	-174.7274
511.649292	107.455	-174.1695
515.356934	107.418	-173.4286
519.091370	107.426	-172.8069
522.852966	107.451	-172.3809
526.641724	107.486	-172.0949
530.458008	107.531	-172.0234
534.301941	107.561	-172.2566
538.173706	107.543	-172.6520
542.073547	107.477	-172.9077
546.001648	107.406	-172.8950
549.958191	107.365	-172.8219
553.943420	107.339	-172.9635
557.957520	107.290	-173.3373
562.000671	107.194	-173.7427
566.073181	107.059	-173.9474
570.175171	106.916	-173.8168
574.306885	106.812	-173.4537
578.468567	106.767	-173.2169
582.660400	106.741	-173.4529
586.882568	106.660	-174.1240
591.135376	106.479	-174.7744
595.419006	106.221	-174.9030
599.733643	105.953	-174.3341
604.079590	105.743	-173.2917
608.456970	105.614	-172.1773
612.866089	105.536	-171.2477
617.307190	105.470	-170.4844
621.780457	105.403	-169.7280
626.286133	105.344	-168.8541
630.824463	105.314	-167.7908
635.395691	105.347	-166.5158
640.000000	105.492	-165.1912
644.637695	105.765	-164.2926
649.309021	106.101	-164.4227
654.014160	106.376	-165.7565
658.753418	106.512	-167.7809
663.527039	106.524	-169.7772
668.335205	106.474	-171.3914
673.178284	106.414	-172.6411
678.056396	106.375	-173.6482
682.969849	106.380	-174.6064
687.918945	106.429	-175.8590
692.903870	106.462	-177.6614
697.924927	106.399	-179.7788
702.982422	106.212	178.5164
708.076477	105.986	177.8058
713.207520	105.858	177.8868
718.375732	105.886	177.9097
723.581360	105.991	177.1807
728.824707	106.051	175.7849
734.106079	106.028	174.3910
739.425720	105.985	173.4780
744.783936	106.008	172.8273
750.180908	106.091	171.8708
755.617065	106.145	170.4521
761.092529	106.108	169.1061
766.607727	106.033	168.4795
772.162903	106.044	168.5094
777.758301	106.190	168.4748
783.394287	106.402	167.7954
789.071045	106.596	166.4569
794.789001	106.726	164.7661
800.548340	106.789	163.1055
806.349487	106.821	161.7407
812.192627	106.865	160.5990
818.078125	106.923	159.4492
824.006226	106.976	158.2067
829.977295	107.006	156.8879
835.991699	107.002	155.5750
842.049622	106.962	154.4373
848.151428	106.912	153.5640
854.297485	106.871	152.8538
860.488098	106.831	152.1860
866.723572	106.783	151.5952
873.004211	106.734	151.1201
879.330322	106.694	150.6579
885.702332	106.639	150.1422
892.120483	106.547	149.7855
898.585144	106.459	149.8533
905.096680	106.457	150.0796
911.655396	106.540	149.6646
918.261597	106.579	148.1166
924.915710	106.420	146.0212
931.618042	106.025	144.7174
938.368896	105.518	145.0340
945.168762	105.094	146.4203
952.017822	104.797	147.7437
958.916504	104.491	148.8917
965.865234	104.109	150.8328
972.864319	103.790	153.8457
979.914062	103.653	156.7949
987.014954	103.581	158.7877
994.167236	103.424	160.3716
1001.371399	103.203	162.3916
1008.627747	103.008	164.8207
1015.936646	102.848	167.3902
1023.298584	102.710	170.3023
1030.713867	102.656	173.7053
1038.182739	102.746	177.1025
1045.705933	102.923	179.8558
1053.283447	103.093	-177.9265
1060.916016	103.277	-175.7645
1068.603882	103.535	-173.8710
1076.347412	103.820	-172.8401
1084.147095	104.041	-172.6679
1092.003296	104.170	-172.8989
1099.916382	104.222	-173.1595
1107.886841	104.229	-173.2717
1115.915039	104.213	-173.2864
1124.001343	104.167	-173.2352
1132.146362	104.089	-172.9374
1140.350342	104.013	-172.2796
1148.613770	103.979	-171.4317
1156.937134	103.986	-170.6543
1165.320801	104.016	-170.0076
1173.765137	104.064	-169.4896
1182.270752	104.115	-169.0941
1190.838013	104.163	-168.6791
1199.467285	104.233	-168.2361
1208.159180	104.330	-167.9772
1216.913940	104.430	-167.9691
1225.732178	104.517	-168.1149
1234.614380	104.583	-168.2978
1243.560913	104.628	-168.3163
1252.572266	104.687	-168.0164
1261.648926	104.798	-167.5789
1270.791382	104.940	-167.2984
1280.000000	105.080	-167.1041
1289.275391	105.240	-166.8391
1298.618042	105.441	-166.7216
1308.028320	105.641	-166.9831
1317.506836	105.791	-167.4635
1327.054077	105.898	-167.8597
1336.670410	105.987	-168.1321
1346.356567	106.052	-168.3583
1356.112793	106.083	-168.3429
1365.939697	106.124	-167.9111
1375.837891	106.219	-167.3126
1385.807739	106.354	-166.9168
1395.849854	106.481	-166.8270
1405.964844	106.573	-166.8846
1416.152954	106.638	-166.9629
1426.415039	106.675	-167.1157
1436.751465	106.658	-167.2700
1447.162720	106.583	-167.1523
1457.649414	106.485	-166.6296
1468.212158	106.399	-165.7319
1478.851440	106.360	-164.5923
1489.567871	106.380	-163.4845
1500.361816	106.436	-162.6012
1511.234131	106.509	-161.9891
1522.185059	106.577	-161.6913
1533.215454	106.619	-161.6269
1544.325806	106.644	-161.6669
1555.516602	106.666	-161.8435
1566.788574	106.684	-162.2269
1578.142090	106.698	-162.8511
1589.578003	106.702	-163.7832
1601.096680	106.671	-165.0579
1612.698975	106.577	-166.4576
1624.385254	106.436	-167.6661
1636.156250	106.301	-168.6097
1648.012451	106.211	-169.4747
1659.954590	106.169	-170.4951
1671.983398	106.156	-171.8026
1684.099243	106.147	-173.4325
1696.302856	106.110	-175.3069
1708.594971	106.028	-177.1950
1720.976196	105.910	-178.8859
1733.447144	105.770	179.7628
1746.008423	105.632	178.9067
1758.660645	105.539	178.5405
1771.404663	105.519	178.4524
1784.240967	105.570	178.4094
1797.170288	105.664	178.2836
1810.193359	105.779	178.0795
1823.310791	105.903	177.8097
1836.523193	106.022	177.4841
1849.831421	106.126	177.1893
1863.236084	106.226	176.9791
1876.737793	106.326	176.8060
1890.337524	106.419	176.5995
1904.035645	106.491	176.3696
1917.833008	106.534	176.1633
1931.730469	106.552	176.0199
1945.728638	106.556	175.9265
1959.828125	106.550	175.7726
1974.029907	106.517	175.5325
1988.334473	106.449	175.3057
2002.742798	106.351	175.2384
2017.255493	106.253	175.3844
2031.873291	106.183	175.5532
2046.597168	106.133	175.5317
2061.427734	106.087	175.2661
2076.365479	106.031	174.7471
2091.411865	105.947	174.0580
2106.566895	105.841	173.3270
2121.832031	105.725	172.5570
2137.207764	105.594	171.7389
2152.694824	105.447	170.9460
2168.294189	105.293	170.2438
2184.006592	105.144	169.6441
2199.832764	105.006	169.0986
2215.773682	104.873	168.5822
2231.830078	104.735	168.1568
2248.002686	104.590	167.8978
2264.292725	104.445	167.8687
2280.700684	104.316	168.0416
2297.227539	104.208	168.2784
2313.874268	104.102	168.5242
2330.641602	103.989	168.8430
2347.530273	103.877	169.2222
2364.541504	103.761	169.5457
2381.676025	103.620	169.7983
2398.934570	103.443	170.1010
2416.318359	103.243	170.5209
2433.827881	103.037	170.9827
2451.464355	102.826	171.3684
2469.228760	102.601	171.6267
2487.121826	102.356	171.7675
2505.144531	102.088	171.8087
2523.297852	101.798	171.7827
2541.582764	101.489	171.7601
2560.000000	101.178	171.7834
2578.550781	100.879	171.8361
2597.236084	100.600	171.9076
2616.056641	100.352	171.9979
2635.013672	100.140	172.0659
2654.108154	99.958	172.1000
2673.340820	99.799	172.1868
2692.713135	99.668	172.3606
2712.225586	99.565	172.5886
2731.879395	99.475	172.8885
2751.675781	99.389	173.3337
2771.615479	99.298	173.9995
2791.699707	99.204	174.9595
2811.929688	99.112	176.2489
2832.305908	99.036	177.8189
2852.830078	98.979	179.5781
2873.502930	98.945	-178.5753
2894.325439	98.932	-176.7666
2915.298828	98.927	-175.1140
2936.424316	98.913	-173.6573
2957.702881	98.882	-172.3691
2979.135742	98.834	-171.2365
3000.723633	98.770	-170.2802
3022.468262	98.682	-169.4843
3044.370117	98.568	-168.7628
3066.430908	98.433	-168.0137
3088.651611	98.291	-167.1655
3111.033203	98.157	-166.1837
3133.577148	98.045	-165.0742
3156.284180	97.962	-163.8726
3179.156006	97.908	-162.6298
3202.193359	97.876	-161.3926
3225.397949	97.853	-160.1791
3248.770508	97.828	-158.9512
3272.312500	97.797	-157.6477
3296.024902	97.766	-156.2451
3319.909180	97.742	-154.7740
3343.966797	97.727	-153.3263
3368.198486	97.715	-152.0030
3392.605713	97.693	-150.8121
3417.189941	97.661	-149.6528
3441.952393	97.641	-148.4815
3466.894287	97.655	-147.3796
3492.016846	97.708	-146.4287
3517.321289	97.800	-145.6679
3542.809326	97.925	-145.1039
3568.481934	98.072	-144.6929
3594.340576	98.231	-144.3457
3620.386719	98.400	-143.9471
3646.621582	98.584	-143.4116
3673.046387	98.787	-142.7294
3699.662842	99.006	-141.9410
3726.472168	99.232	-141.0845
3753.475586	99.458	-140.1816
3780.675049	99.684	-139.2709
3808.071289	99.909	-138.4271
3835.666016	100.132	-137.7249
3863.460938	100.348	-137.2112
3891.457275	100.559	-136.9177
3919.656250	100.769	-136.8748
3948.059814	100.978	-137.0972
3976.668945	101.187	-137.5642
4005.485596	101.396	-138.2140
4034.510986	101.614	-138.9678
4063.746582	101.846	-139.7720
4093.194336	102.097	-140.6125
4122.855469	102.363	-141.4850
4152.730957	102.639	-142.3653
4182.823730	102.924	-143.2329
4213.133789	103.219	-144.1127
4243.664062	103.523	-145.0743
4274.415527	103.830	-146.1965
4305.389648	104.132	-147.5444
4336.588379	104.420	-149.1567
4368.013184	104.684	-151.0367
4399.665527	104.920	-153.1534
4431.547363	105.124	-155.4497
4463.660156	105.295	-157.8594
4496.005371	105.432	-160.3147
4528.585449	105.542	-162.7510
4561.401367	105.632	-165.1434
4594.455078	105.711	-167.5247
4627.748535	105.780	-169.9442
4661.283203	105.839	-172.4246
4695.060547	105.892	-174.9565
4729.083008	105.950	-177.5198
4763.352051	106.033	179.8857
4797.869141	106.161	177.2147
4832.636719	106.343	174.3669
4867.655762	106.572	171.2116
4902.928711	106.817	167.6462
4938.457520	107.037	163.6678
4974.243652	107.192	159.4389
5010.289062	107.270	155.2457
5046.595703	107.289	151.3098
5083.165527	107.286	147.6442
5120.000000	107.286	144.1006
5157.101562	107.305	140.5033
5194.472168	107.347	136.7142
5232.113281	107.409	132.6352
5270.027344	107.479	128.2230
5308.216309	107.531	123.5208
5346.681641	107.543	118.6494
5385.426270	107.498	113.7412
5424.451172	107.386	108.8629
5463.758789	107.198	104.0088
5503.351562	106.918	99.1785
5543.230957	106.538	94.4340
5583.399414	106.058	89.8859
5623.859375	105.488	85.6700
5664.611816	104.851	81.9207
5705.660156	104.179	78.7221
5747.005859	103.499	76.1082
5788.650879	102.812	74.2239
5830.597656	102.073	73.7109
5872.848633	101.238	75.9771
5915.405762	100.375	82.3892
5958.271484	99.658	92.7289
6001.447266	99.164	104.7401
6044.936523	98.812	115.0989
6088.740234	98.529	121.4216
6132.861816	98.293	123.8038
6177.303223	98.087	123.8730
6222.066406	97.904	123.0478
6267.154297	97.744	122.0215
6312.568359	97.598	120.9807
6358.312012	97.429	119.9084
6404.386719	97.191	118.7496
6450.795898	96.841	117.4510
6497.541016	96.352	115.9797
6544.625000	95.710	114.3566
6592.049805	94.907	112.8013
6639.818359	93.937	111.9087
6687.933594	92.808	112.7109
6736.396973	91.557	116.6325
6785.211426	90.316	125.1176
6834.379883	89.451	138.6555
6883.904785	89.506	155.7055
6933.788574	90.619	172.8665
6984.033691	92.307	-173.3090
7034.642578	94.078	-164.6498
7085.618652	95.685	-161.2637
7136.963867	97.037	-162.3016
7188.681152	98.096	-166.5388
7240.773438	98.852	-172.5977
7293.243164	99.322	-179.1475
7346.092773	99.542	174.8219
7399.325684	99.563	169.8361
7452.944336	99.446	165.9573
7506.951172	99.249	162.9459
7561.350098	99.022	160.5072
7616.142578	98.799	158.4915
7671.332031	98.605	156.9297
7726.921875	98.448	155.9227
7782.914551	98.320	155.4938
7839.312500	98.202	155.5231
7896.119629	98.078	155.7698
7953.337891	97.944	155.9219
8010.971191	97.809	155.6784
8069.021973	97.674	154.9068
8127.493164	97.533	153.7599
8186.388672	97.376	152.5827
8245.710938	97.196	151.6289
8305.461914	96.984	150.8115
8365.647461	96.703	149.7548
8426.267578	96.273	148.2876
8487.328125	95.622	146.9522
8548.831055	94.782	146.5992
8610.779297	93.883	147.6395
8673.176758	93.022	150.3099
8736.026367	92.209	155.1474
8799.331055	91.456	162.7355
8863.094727	90.906	173.0009
8927.320312	90.824	-175.3845
8992.010742	91.340	-164.8664
9057.170898	92.231	-157.7296
9122.802734	93.157	-154.6165
9188.910156	93.922	-154.4257
9255.497070	94.470	-155.4247
9322.566406	94.835	-156.2528
9390.121094	95.098	-156.3984
9458.166016	95.337	-156.1771
9526.704102	95.578	-156.1815
9595.738281	95.800	-156.7135
9665.273438	95.972	-157.7041
9735.311523	96.066	-158.9973
9805.857422	96.062	-160.6048
9876.915039	95.936	-162.7055
9948.487305	95.656	-165.4020
10020.578125	95.180	-168.4251
10093.191406	94.463	-170.9928
10166.331055	93.467	-171.9315
10240.000000	92.173	-169.9518
10314.203125	90.606	-163.9112
10388.944336	88.907	-153.0699
10464.226562	87.495	-137.4402
10540.054688	87.189	-118.3290
10616.432617	88.434	-98.5663
10693.363281	90.551	-81.5621
10770.852539	92.762	-69.6829
10848.902344	94.750	-63.3956
10927.517578	96.464	-61.6766
11006.703125	97.945	-62.9853
11086.461914	99.248	-66.0009
11166.798828	100.404	-69.9305
11247.718750	101.405	-74.5267
11329.223633	102.211	-79.8510
11411.320312	102.778	-85.7703
11494.011719	103.119	-91.5662
11577.301758	103.351	-96.3459
11661.195312	103.654	-100.1459
11745.697266	104.079	-104.2301
11830.811523	104.485	-109.8428
11916.542969	104.717	-117.0457
12002.894531	104.730	-125.0639
12089.873047	104.552	-133.3893
12177.480469	104.183	-142.0425
12265.723633	103.585	-150.9480
12354.606445	102.758	-159.6714
12444.132812	101.762	-167.7541
12534.308594	100.674	-175.0730
12625.136719	99.523	177.9860
12716.624023	98.296	170.5639
12808.773438	96.990	161.6412
12901.591797	95.675	150.4785
12995.082031	94.493	136.7355
13089.250000	93.641	120.1533
13184.099609	93.296	100.4250
13279.636719	93.484	77.7431
13375.867188	93.986	53.2804
13472.793945	94.466	28.7479
13570.422852	94.650	5.8364
13668.759766	94.415	-13.8364
13767.809570	93.772	-29.0640
13867.577148	92.794	-39.4297
13968.067383	91.575	-45.1171
14069.285156	90.239	-46.6980
14171.237305	88.978	-45.3942
14273.927734	87.965	-43.1116
14377.362305	87.201	-41.7495
14481.546875	86.501	-42.5756
14586.486328	85.640	-46.5864
14692.185547	84.474	-56.0206
14798.651367	83.062	-75.8345
14905.888672	81.910	-111.9034
15013.902344	81.752	-163.7981
15122.700195	82.242	140.7578
15232.285156	82.381	99.1027
15342.664062	82.036	80.7656
15453.843750	82.161	82.4453
15565.829102	83.625	93.6401
15678.625000	85.866	105.0317
15792.239258	88.061	111.7102
15906.675781	89.833	112.2548
16021.942383	91.036	107.6157
16138.043945	91.640	100.4351
16254.986328	91.715	93.7943
16372.777344	91.413	89.8821
16491.421875	90.966	89.6749
16610.923828	90.729	93.1522
16731.294922	91.102	98.8527
16852.535156	92.072	103.5071
16974.656250	93.113	103.9011
17097.662109	93.792	99.7729
17221.558594	94.059	93.2285
17346.353516	94.018	85.6284
17472.052734	93.635	77.5640
17598.662109	92.773	70.7278
17726.189453	91.396	67.2876
17854.640625	89.667	67.6699
17984.021484	87.906	70.0607
18114.341797	86.332	72.5796
18245.605469	84.832	75.7395
18377.820312	83.132	82.4690
18510.994141	81.149	95.2373
18645.132812	79.247	112.7732
18780.242188	78.111	130.6700
18916.332031	77.879	145.4117
19053.408203	77.989	157.0104
19191.476562	78.163	167.9072
19330.546875	78.674	179.1997
19470.623047	79.662	-171.4907
19611.714844	80.736	-167.0588
19753.830078	81.533	-167.2810
19896.974609	81.988	-169.4200
