* Measurement data measured by REW V5.20.13
* Source: default [default], no input selected, R, volume: no control
* Format: 256k Log Swept Sine, 1 sweep at 0.0 dBFS, at 48000 Hz
* Dated: Feb 21, 2023 3:22:11 PM
* Sense Resistor: 99.8
* Lead resistance: 0.000
* Input resistance: 20000.000
* Calibration factor: 1.0000
* Note: 
* Measurement: Tweeter Impedance
* Smoothing: 1/24 octave
* Frequency Step: 1/96 octave
* Start Frequency: 302.040 Hz
*
* Freq(Hz)	Z(Ohms)	Phase(degrees)
302.039795	7.699342	8.5627
304.228485	7.704776	8.5893
306.433044	7.712472	8.6268
308.653595	7.721430	8.6702
310.890228	7.730949	8.7161
313.143066	7.740639	8.7630
315.412231	7.750378	8.8106
317.697845	7.760215	8.8587
320.000000	7.770216	8.9067
322.318848	7.780421	8.9537
324.654510	7.790936	8.9990
327.007080	7.801907	9.0427
329.376709	7.813356	9.0855
331.763519	7.825140	9.1279
334.167603	7.837156	9.1697
336.589142	7.849482	9.2103
339.028198	7.862149	9.2498
341.484924	7.875031	9.2887
343.959473	7.887991	9.3282
346.451935	7.901029	9.3690
348.962463	7.914307	9.4105
351.491211	7.928054	9.4520
354.038239	7.942361	9.4930
356.603760	7.957102	9.5329
359.187866	7.972082	9.5716
361.790680	7.987179	9.6099
364.412354	8.002353	9.6481
367.053040	8.017635	9.6858
369.712860	8.033129	9.7218
372.391968	8.048896	9.7550
375.090454	8.064919	9.7857
377.808533	8.081175	9.8146
380.546265	8.097692	9.8428
383.303864	8.114550	9.8704
386.081451	8.131859	9.8974
388.879150	8.149710	9.9241
391.697144	8.168110	9.9501
394.535522	8.186989	9.9745
397.394501	8.206300	9.9966
400.274170	8.226004	10.0160
403.174744	8.246013	10.0329
406.096313	8.266233	10.0477
409.039062	8.286613	10.0611
412.003113	8.307132	10.0738
414.988647	8.327853	10.0857
417.995850	8.348923	10.0959
421.024811	8.370479	10.1038
424.075714	8.392571	10.1094
427.148743	8.415197	10.1118
430.244049	8.438377	10.1097
433.361786	8.462134	10.1023
436.502106	8.486449	10.0897
439.665161	8.511257	10.0728
442.851166	8.536511	10.0524
446.060242	8.562147	10.0295
449.292572	8.587983	10.0048
452.548340	8.613778	9.9780
455.827698	8.639450	9.9484
459.130798	8.665205	9.9144
462.457855	8.691396	9.8758
465.809021	8.718274	9.8327
469.184448	8.745853	9.7853
472.584381	8.773947	9.7327
476.008911	8.802280	9.6736
479.458252	8.830652	9.6080
482.932617	8.859007	9.5371
486.432159	8.887421	9.4618
489.957031	8.916033	9.3818
493.507477	8.944942	9.2959
497.083618	8.974116	9.2030
500.685699	9.003446	9.1025
504.313873	9.032863	8.9946
507.968323	9.062315	8.8800
511.649292	9.091744	8.7590
515.356934	9.121157	8.6320
519.091370	9.150602	8.4990
522.852966	9.180061	8.3594
526.641724	9.209388	8.2123
530.458008	9.238361	8.0565
534.301941	9.266795	7.8919
538.173706	9.294641	7.7189
542.073547	9.321987	7.5386
546.001648	9.348951	7.3511
549.958191	9.375561	7.1568
553.943420	9.401711	6.9556
557.957520	9.427193	6.7479
562.000671	9.451777	6.5339
566.073181	9.475315	6.3138
570.175171	9.497731	6.0869
574.306885	9.518946	5.8527
578.468567	9.538823	5.6106
582.660400	9.557283	5.3609
586.882568	9.574352	5.1037
591.135376	9.590058	4.8402
595.419006	9.604404	4.5717
599.733643	9.617424	4.2998
604.079590	9.629107	4.0245
608.456970	9.639267	3.7445
612.866089	9.647671	3.4590
617.307190	9.654180	3.1690
621.780457	9.658635	2.8773
626.286133	9.660755	2.5855
630.824463	9.660329	2.2940
635.395691	9.657396	2.0030
640.000000	9.652212	1.7126
644.637695	9.645079	1.4224
649.309021	9.636249	1.1323
654.014160	9.625793	0.8420
658.753418	9.613587	0.5521
663.527039	9.599392	0.2646
668.335205	9.582963	-0.0171
673.178284	9.564246	-0.2900
678.056396	9.543522	-0.5523
682.969849	9.521350	-0.8033
687.918945	9.498369	-1.0441
692.903870	9.475013	-1.2770
697.924927	9.451274	-1.5052
702.982422	9.426765	-1.7312
708.076477	9.400969	-1.9560
713.207520	9.373434	-2.1788
718.375732	9.343925	-2.3971
723.581360	9.312528	-2.6075
728.824707	9.279597	-2.8068
734.106079	9.245502	-2.9929
739.425720	9.210479	-3.1639
744.783936	9.174811	-3.3173
750.180908	9.139071	-3.4513
755.617065	9.104098	-3.5664
761.092529	9.070629	-3.6667
766.607727	9.038748	-3.7589
772.162903	9.007892	-3.8490
777.758301	8.977440	-3.9396
783.394287	8.947129	-4.0305
789.071045	8.916867	-4.1207
794.789001	8.886430	-4.2094
800.548340	8.855547	-4.2948
806.349487	8.824099	-4.3748
812.192627	8.792118	-4.4490
818.078125	8.759663	-4.5176
824.006226	8.726768	-4.5801
829.977295	8.693487	-4.6355
835.991699	8.659923	-4.6821
842.049622	8.626147	-4.7184
848.151428	8.592236	-4.7433
854.297485	8.558468	-4.7564
860.488098	8.525372	-4.7581
866.723572	8.493397	-4.7506
873.004211	8.462550	-4.7369
879.330322	8.432533	-4.7199
885.702332	8.403047	-4.7005
892.120483	8.373919	-4.6771
898.585144	8.345075	-4.6469
905.096680	8.316542	-4.6082
911.655396	8.288381	-4.5611
918.261597	8.260688	-4.5057
924.915710	8.233702	-4.4410
931.618042	8.207738	-4.3655
938.368896	8.183075	-4.2782
945.168762	8.160046	-4.1801
952.017822	8.139180	-4.0744
958.916504	8.121058	-3.9665
965.865234	8.105871	-3.8632
972.864319	8.093102	-3.7720
979.914062	8.081644	-3.6990
987.014954	8.070128	-3.6463
994.167236	8.057255	-3.6107
1001.371399	8.042231	-3.5841
1008.627747	8.024992	-3.5570
1015.936646	8.006031	-3.5226
1023.298584	7.986093	-3.4778
1030.713867	7.965902	-3.4217
1038.182739	7.946015	-3.3548
1045.705933	7.926851	-3.2781
1053.283447	7.908620	-3.1926
1060.916016	7.891282	-3.0995
1068.603882	7.874792	-3.0009
1076.347412	7.859233	-2.8999
1084.147095	7.844584	-2.7992
1092.003296	7.830603	-2.7014
1099.916382	7.817023	-2.6074
1107.886841	7.803761	-2.5161
1115.915039	7.790913	-2.4247
1124.001343	7.778507	-2.3309
1132.146362	7.766390	-2.2337
1140.350342	7.754472	-2.1324
1148.613770	7.742907	-2.0263
1156.937134	7.731915	-1.9160
1165.320801	7.721533	-1.8032
1173.765137	7.711604	-1.6896
1182.270752	7.701930	-1.5767
1190.838013	7.692409	-1.4646
1199.467285	7.683082	-1.3526
1208.159180	7.674097	-1.2400
1216.913940	7.665588	-1.1273
1225.732178	7.657543	-1.0151
1234.614380	7.649786	-0.9035
1243.560913	7.642132	-0.7921
1252.572266	7.634519	-0.6809
1261.648926	7.626998	-0.5706
1270.791382	7.619726	-0.4610
1280.000000	7.612939	-0.3516
1289.275391	7.606791	-0.2414
1298.618042	7.601247	-0.1301
1308.028320	7.596175	-0.0181
1317.506836	7.591456	0.0930
1327.054077	7.586979	0.2023
1336.670410	7.582628	0.3110
1346.356567	7.578368	0.4214
1356.112793	7.574256	0.5346
1365.939697	7.570310	0.6505
1375.837891	7.566551	0.7685
1385.807739	7.563073	0.8871
1395.849854	7.559958	1.0061
1405.964844	7.557228	1.1265
1416.152954	7.554950	1.2497
1426.415039	7.553274	1.3759
1436.751465	7.552282	1.5031
1447.162720	7.551963	1.6276
1457.649414	7.552289	1.7444
1468.212158	7.553132	1.8506
1478.851440	7.554136	1.9476
1489.567871	7.554844	2.0400
1500.361816	7.554963	2.1334
1511.234131	7.554482	2.2317
1522.185059	7.553697	2.3361
1533.215454	7.553123	2.4458
1544.325806	7.553234	2.5575
1555.516602	7.554211	2.6677
1566.788574	7.555877	2.7746
1578.142090	7.557838	2.8780
1589.578003	7.559733	2.9785
1601.096680	7.561405	3.0774
1612.698975	7.562913	3.1762
1624.385254	7.564446	3.2758
1636.156250	7.566119	3.3760
1648.012451	7.567756	3.4764
1659.954590	7.569091	3.5775
1671.983398	7.570173	3.6804
1684.099243	7.571347	3.7860
1696.302856	7.572917	3.8944
1708.594971	7.574954	4.0060
1720.976196	7.577411	4.1208
1733.447144	7.580345	4.2371
1746.008423	7.583867	4.3522
1758.660645	7.587987	4.4649
1771.404663	7.592607	4.5764
1784.240967	7.597575	4.6883
1797.170288	7.602710	4.8000
1810.193359	7.607922	4.9093
1823.310791	7.613314	5.0145
1836.523193	7.619036	5.1157
1849.831421	7.625058	5.2146
1863.236084	7.631278	5.3120
1876.737793	7.637704	5.4081
1890.337524	7.644365	5.5027
1904.035645	7.651176	5.5961
1917.833008	7.657987	5.6898
1931.730469	7.664728	5.7854
1945.728638	7.671515	5.8838
1959.828125	7.678638	5.9855
1974.029907	7.686462	6.0903
1988.334473	7.695263	6.1960
2002.742798	7.705087	6.3009
2017.255493	7.715786	6.4047
2031.873291	7.727128	6.5081
2046.597168	7.738908	6.6107
2061.427734	7.751054	6.7107
2076.365479	7.763679	6.8063
2091.411865	7.776934	6.8965
2106.566895	7.790835	6.9807
2121.832031	7.805332	7.0593
2137.207764	7.820422	7.1333
2152.694824	7.836147	7.2035
2168.294189	7.852606	7.2689
2184.006592	7.869829	7.3289
2199.832764	7.887668	7.3839
2215.773682	7.905891	7.4349
2231.830078	7.924387	7.4810
2248.002686	7.943187	7.5204
2264.292725	7.962351	7.5515
2280.700684	7.981876	7.5738
2297.227539	8.001615	7.5871
2313.874268	8.021349	7.5907
2330.641602	8.040963	7.5849
2347.530273	8.060408	7.5700
2364.541504	8.079550	7.5466
2381.676025	8.098170	7.5155
2398.934570	8.116056	7.4772
2416.318359	8.133151	7.4316
2433.827881	8.149546	7.3788
2451.464355	8.165293	7.3186
2469.228760	8.180286	7.2512
2487.121826	8.194296	7.1778
2505.144531	8.207098	7.0998
2523.297852	8.218650	7.0179
2541.582764	8.228984	6.9325
2560.000000	8.238008	6.8441
2578.550781	8.245579	6.7529
2597.236084	8.251653	6.6589
2616.056641	8.256231	6.5639
2635.013672	8.259250	6.4707
2654.108154	8.260604	6.3810
2673.340820	8.260272	6.2950
2692.713135	8.258369	6.2119
2712.225586	8.255094	6.1319
2731.879395	8.250624	6.0563
2751.675781	8.245048	5.9872
2771.615479	8.238411	5.9265
2791.699707	8.230753	5.8753
2811.929688	8.222106	5.8330
2832.305908	8.212479	5.7977
2852.830078	8.201970	5.7675
2873.502930	8.190834	5.7428
2894.325439	8.179299	5.7253
2915.298828	8.167435	5.7162
2936.424316	8.155283	5.7155
2957.702881	8.142965	5.7227
2979.135742	8.130617	5.7381
3000.723633	8.118337	5.7616
3022.468262	8.106223	5.7927
3044.370117	8.094417	5.8301
3066.430908	8.082980	5.8724
3088.651611	8.071828	5.9193
3111.033203	8.060813	5.9715
3133.577148	8.049828	6.0295
3156.284180	8.038832	6.0925
3179.156006	8.027886	6.1591
3202.193359	8.017178	6.2291
3225.397949	8.006888	6.3033
3248.770508	7.997090	6.3821
3272.312500	7.987719	6.4655
3296.024902	7.978650	6.5530
3319.909180	7.969778	6.6447
3343.966797	7.961077	6.7412
3368.198486	7.952688	6.8428
3392.605713	7.944892	6.9500
3417.189941	7.937967	7.0630
3441.952393	7.932019	7.1816
3466.894287	7.926941	7.3040
3492.016846	7.922533	7.4272
3517.321289	7.918533	7.5478
3542.809326	7.914649	7.6633
3568.481934	7.910834	7.7736
3594.340576	7.907320	7.8804
3620.386719	7.904261	7.9869
3646.621582	7.901569	8.0950
3673.046387	7.899115	8.2049
3699.662842	7.896811	8.3164
3726.472168	7.894661	8.4294
3753.475586	7.892838	8.5438
3780.675049	7.891546	8.6595
3808.071289	7.890812	8.7759
3835.666016	7.890460	8.8914
3863.460938	7.890236	9.0057
3891.457275	7.889902	9.1200
3919.656250	7.889312	9.2355
3948.059814	7.888538	9.3526
3976.668945	7.887835	9.4714
4005.485596	7.887361	9.5925
4034.510986	7.887099	9.7159
4063.746582	7.887083	9.8411
4093.194336	7.887432	9.9666
4122.855469	7.888181	10.0922
4152.730957	7.889265	10.2188
4182.823730	7.890609	10.3474
4213.133789	7.892148	10.4775
4243.664062	7.893856	10.6069
4274.415527	7.895724	10.7340
4305.389648	7.897743	10.8592
4336.588379	7.899951	10.9846
4368.013184	7.902491	11.1112
4399.665527	7.905490	11.2389
4431.547363	7.908928	11.3672
4463.660156	7.912660	11.4964
4496.005371	7.916564	11.6270
4528.585449	7.920716	11.7589
4561.401367	7.925323	11.8913
4594.455078	7.930469	12.0223
4627.748535	7.935989	12.1501
4661.283203	7.941625	12.2745
4695.060547	7.947289	12.3982
4729.083008	7.953119	12.5244
4763.352051	7.959177	12.6533
4797.869141	7.965380	12.7815
4832.636719	7.971664	12.9051
4867.655762	7.977967	13.0233
4902.928711	7.984159	13.1391
4938.457520	7.990085	13.2554
4974.243652	7.995697	13.3733
5010.289062	8.001149	13.4932
5046.595703	8.006714	13.6161
5083.165527	8.012598	13.7423
5120.000000	8.018851	13.8697
5157.101562	8.025401	13.9967
5194.472168	8.032211	14.1224
5232.113281	8.039326	14.2468
5270.027344	8.046750	14.3708
5308.216309	8.054358	14.4955
5346.681641	8.062019	14.6211
5385.426270	8.069758	14.7473
5424.451172	8.077673	14.8735
5463.758789	8.085835	14.9990
5503.351562	8.094222	15.1230
5543.230957	8.102706	15.2454
5583.399414	8.111197	15.3673
5623.859375	8.119883	15.4905
5664.611816	8.129096	15.6156
5705.660156	8.138870	15.7416
5747.005859	8.148969	15.8667
5788.650879	8.159203	15.9903
5830.597656	8.169416	16.1137
5872.848633	8.179509	16.2381
5915.405762	8.189523	16.3636
5958.271484	8.199498	16.4884
6001.447266	8.209404	16.6115
6044.936523	8.219306	16.7328
6088.740234	8.229435	16.8523
6132.861816	8.239927	16.9703
6177.303223	8.250689	17.0874
6222.066406	8.261579	17.2052
6267.154297	8.272572	17.3248
6312.568359	8.283733	17.4467
6358.312012	8.295112	17.5699
6404.386719	8.306711	17.6929
6450.795898	8.318539	17.8148
6497.541016	8.330626	17.9355
6544.625000	8.342967	18.0560
6592.049805	8.355486	18.1765
6639.818359	8.368111	18.2959
6687.933594	8.380749	18.4130
6736.396973	8.393278	18.5289
6785.211426	8.405684	18.6455
6834.379883	8.418080	18.7636
6883.904785	8.430608	18.8821
6933.788574	8.443359	18.9998
6984.033691	8.456388	19.1155
7034.642578	8.469711	19.2283
7085.618652	8.483232	19.3398
7136.963867	8.496751	19.4531
7188.681152	8.510035	19.5690
7240.773438	8.522959	19.6865
7293.243164	8.535641	19.8052
7346.092773	8.548375	19.9250
7399.325684	8.561499	20.0446
7452.944336	8.575212	20.1627
7506.951172	8.589498	20.2794
7561.350098	8.604133	20.3956
7616.142578	8.618847	20.5127
7671.332031	8.633558	20.6319
7726.921875	8.648365	20.7528
7782.914551	8.663380	20.8737
7839.312500	8.678608	20.9931
7896.119629	8.693880	21.1105
7953.337891	8.709009	21.2276
8010.971191	8.724019	21.3461
8069.021973	8.739127	21.4662
8127.493164	8.754555	21.5866
8186.388672	8.770464	21.7054
8245.710938	8.786988	21.8222
8305.461914	8.804251	21.9375
8365.647461	8.822124	22.0517
8426.267578	8.839979	22.1657
8487.328125	8.857182	22.2812
8548.831055	8.873876	22.3982
8610.779297	8.890714	22.5157
8673.176758	8.908034	22.6334
8736.026367	8.925757	22.7511
8799.331055	8.943707	22.8682
8863.094727	8.961765	22.9844
8927.320312	8.979919	23.0992
8992.010742	8.998255	23.2122
9057.170898	9.016826	23.3237
9122.802734	9.035557	23.4349
9188.910156	9.054298	23.5465
9255.497070	9.072959	23.6588
9322.566406	9.091650	23.7713
9390.121094	9.110673	23.8833
9458.166016	9.130251	23.9947
9526.704102	9.150337	24.1060
9595.738281	9.170733	24.2176
9665.273438	9.191261	24.3293
9735.311523	9.211818	24.4404
9805.857422	9.232376	24.5498
9876.915039	9.253008	24.6572
9948.487305	9.273829	24.7624
10020.578125	9.294930	24.8663
10093.191406	9.316296	24.9702
10166.331055	9.337813	25.0746
10240.000000	9.359412	25.1791
10314.203125	9.381092	25.2831
10388.944336	9.402855	25.3865
10464.226562	9.424668	25.4898
10540.054688	9.446501	25.5933
10616.432617	9.468420	25.6968
10693.363281	9.490584	25.7995
10770.852539	9.513105	25.9007
10848.902344	9.535964	26.0001
10927.517578	9.559103	26.0982
11006.703125	9.582518	26.1963
11086.461914	9.606203	26.2949
11166.798828	9.629938	26.3936
11247.718750	9.653165	26.4920
11329.223633	9.675557	26.5898
11411.320312	9.697681	26.6852
11494.011719	9.720293	26.7777
11577.301758	9.743483	26.8685
11661.195312	9.766944	26.9592
11745.697266	9.790480	27.0499
11830.811523	9.814032	27.1405
11916.542969	9.837549	27.2302
12002.894531	9.860991	27.3184
12089.873047	9.884375	27.4053
12177.480469	9.907707	27.4914
12265.723633	9.930971	27.5772
12354.606445	9.954185	27.6632
12444.132812	9.977401	27.7494
12534.308594	10.000650	27.8360
12625.136719	10.023911	27.9231
12716.624023	10.047071	28.0115
12808.773438	10.070007	28.1017
12901.591797	10.092720	28.1940
12995.082031	10.115331	28.2879
13089.250000	10.137940	28.3825
13184.099609	10.160631	28.4771
13279.636719	10.183513	28.5710
13375.867188	10.206671	28.6644
13472.793945	10.230113	28.7576
13570.422852	10.253752	28.8516
13668.759766	10.277431	28.9475
13767.809570	10.301063	29.0457
13867.577148	10.324638	29.1454
13968.067383	10.348118	29.2454
14069.285156	10.371510	29.3449
14171.237305	10.395033	29.4431
14273.927734	10.418896	29.5386
14377.362305	10.442927	29.6318
14481.546875	10.466770	29.7246
14586.486328	10.490290	29.8195
14692.185547	10.513655	29.9180
14798.651367	10.537168	30.0203
14905.888672	10.561121	30.1256
15013.902344	10.585727	30.2324
15122.700195	10.610983	30.3395
15232.285156	10.636641	30.4464
15342.664062	10.662453	30.5531
15453.843750	10.688412	30.6600
15565.829102	10.714726	30.7675
15678.625000	10.741535	30.8754
15792.239258	10.768778	30.9838
15906.675781	10.796349	31.0928
16021.942383	10.824181	31.2025
16138.043945	10.852203	31.3134
16254.986328	10.880372	31.4260
16372.777344	10.908750	31.5401
16491.421875	10.937387	31.6548
16610.923828	10.966182	31.7698
16731.294922	10.994967	31.8852
16852.535156	11.023823	31.9997
16974.656250	11.053306	32.1107
17097.662109	11.083836	32.2180
17221.558594	11.115089	32.3248
17346.353516	11.146555	32.4331
17472.052734	11.178068	32.5434
17598.662109	11.209660	32.6549
17726.189453	11.241453	32.7666
17854.640625	11.273649	32.8776
17984.021484	11.306314	32.9872
18114.341797	11.339305	33.0949
18245.605469	11.372493	33.2014
18377.820312	11.405894	33.3075
18510.994141	11.439591	33.4135
18645.132812	11.473641	33.5187
18780.242188	11.508047	33.6232
18916.332031	11.542741	33.7280
19053.408203	11.577647	33.8338
19191.476562	11.612761	33.9403
19330.546875	11.648067	34.0465
19470.623047	11.683296	34.1505
19611.714844	11.717499	34.2490
19753.830078	11.748347	34.3353
19896.974609	11.771670	34.3984
