* Measurement data measured by REW V5.20.13
* Source: U18dB [plughw:2,0], no input selected, L, volume: no control
* Format: 256k Log Swept Sine, 1 sweep at 0.0 dBFS with no timing reference
* Dated: Feb 21, 2023 1:23:55 PM
* REW Settings:
*  C-weighting compensation: Off
*  Target level: 75.0 dB
* Note: 
* Measurement: Woofer Far Field
* Smoothing: 1/24 octave
* Frequency Step: 1/96 octave
* Start Frequency: 20.000 Hz
*
* Freq(Hz)	SPL(dB)	Phase(degrees)
20.000000	81.344	-53.6576
20.144928	81.355	-53.9285
20.290907	81.367	-54.1999
20.437943	81.380	-54.4718
20.586044	81.393	-54.7441
20.735220	81.407	-55.0168
20.885475	81.422	-55.2900
21.036821	81.438	-55.5636
21.189262	81.454	-55.8376
21.342808	81.470	-56.1120
21.497467	81.488	-56.3868
21.653246	81.506	-56.6620
21.810154	81.525	-56.9376
21.968201	81.544	-57.2135
22.127390	81.564	-57.4899
22.287735	81.585	-57.7666
22.449242	81.606	-58.0436
22.611917	81.628	-58.3210
22.775772	81.650	-58.5988
22.940815	81.673	-58.8769
23.107054	81.697	-59.1553
23.274498	81.721	-59.4340
23.443153	81.745	-59.7131
23.613033	81.771	-59.9925
23.784142	81.796	-60.2721
23.956491	81.823	-60.5521
24.130091	81.850	-60.8324
24.304947	81.877	-61.1129
24.481071	81.905	-61.3937
24.658470	81.934	-61.6748
24.837156	81.963	-61.9562
25.017136	81.992	-62.2378
25.198421	82.022	-62.5197
25.381020	82.053	-62.8018
25.564941	82.084	-63.0842
25.750195	82.115	-63.3668
25.936790	82.147	-63.6496
26.124741	82.179	-63.9327
26.314051	82.212	-64.2160
26.504732	82.245	-64.4995
26.696796	82.279	-64.7832
26.890253	82.313	-65.0672
27.085112	82.347	-65.3513
27.281382	82.382	-65.6357
27.479073	82.418	-65.9202
27.678198	82.453	-66.2049
27.878765	82.490	-66.4898
28.080786	82.526	-66.7749
28.284271	82.563	-67.0602
28.489231	82.600	-67.3456
28.695675	82.638	-67.6312
28.903616	82.676	-67.9170
29.113064	82.714	-68.2030
29.324028	82.753	-68.4891
29.536524	82.792	-68.7753
29.750557	82.831	-69.0618
29.966141	82.870	-69.3483
30.183289	82.910	-69.6351
30.402010	82.950	-69.9220
30.622314	82.991	-70.2090
30.844217	83.032	-70.4962
31.067726	83.073	-70.7835
31.292856	83.114	-71.0709
31.519617	83.155	-71.3585
31.748020	83.197	-71.6462
31.978081	83.239	-71.9340
32.209808	83.281	-72.2220
32.443211	83.324	-72.5101
32.678310	83.366	-72.7983
32.915108	83.409	-73.0867
33.153625	83.452	-73.3752
33.393871	83.496	-73.6638
33.635857	83.539	-73.9526
33.879597	83.583	-74.2415
34.125103	83.627	-74.5305
34.372387	83.670	-74.8196
34.621464	83.715	-75.1088
34.872345	83.759	-75.3982
35.125042	83.803	-75.6877
35.379574	83.847	-75.9773
35.635948	83.892	-76.2671
35.894180	83.937	-76.5570
36.154285	83.981	-76.8470
36.416275	84.026	-77.1371
36.680161	84.072	-77.4274
36.945961	84.117	-77.7178
37.213688	84.163	-78.0084
37.483353	84.208	-78.2991
37.754974	84.254	-78.5899
38.028561	84.300	-78.8809
38.304131	84.347	-79.1720
38.581699	84.393	-79.4632
38.861279	84.440	-79.7546
39.142883	84.487	-80.0461
39.426529	84.535	-80.3378
39.712231	84.582	-80.6297
40.000000	84.630	-80.9217
40.289856	84.678	-81.2138
40.581814	84.726	-81.5061
40.875885	84.775	-81.7986
41.172089	84.823	-82.0913
41.470440	84.871	-82.3841
41.770950	84.920	-82.6771
42.073643	84.968	-82.9703
42.378525	85.016	-83.2636
42.685616	85.064	-83.5572
42.994934	85.112	-83.8509
43.306492	85.160	-84.1449
43.620308	85.207	-84.4390
43.936401	85.255	-84.7333
44.254780	85.302	-85.0279
44.575470	85.349	-85.3227
44.898483	85.397	-85.6176
45.223835	85.444	-85.9128
45.551544	85.492	-86.2083
45.881630	85.539	-86.5040
46.214108	85.587	-86.7999
46.548996	85.635	-87.0960
46.886307	85.683	-87.3924
47.226067	85.731	-87.6890
47.568283	85.779	-87.9860
47.912983	85.827	-88.2831
48.260181	85.876	-88.5806
48.609894	85.925	-88.8783
48.962143	85.974	-89.1763
49.316940	86.023	-89.4746
49.674313	86.072	-89.7732
50.034271	86.122	-90.0721
50.396843	86.172	-90.3713
50.762039	86.222	-90.6708
51.129883	86.272	-90.9707
51.500389	86.323	-91.2708
51.873581	86.373	-91.5713
52.249481	86.424	-91.8722
52.628101	86.475	-92.1734
53.009464	86.527	-92.4749
53.393593	86.578	-92.7768
53.780506	86.630	-93.0791
54.170223	86.682	-93.3817
54.562763	86.734	-93.6848
54.958145	86.786	-93.9882
55.356396	86.838	-94.2920
55.757530	86.891	-94.5962
56.161572	86.943	-94.9008
56.568542	86.995	-95.2058
56.978462	87.047	-95.5113
57.391350	87.100	-95.8172
57.807232	87.152	-96.1235
58.226128	87.204	-96.4303
58.648056	87.256	-96.7375
59.073048	87.308	-97.0453
59.501114	87.360	-97.3534
59.932281	87.412	-97.6621
60.366577	87.463	-97.9712
60.804020	87.514	-98.2808
61.244629	87.566	-98.5910
61.688435	87.617	-98.9016
62.135452	87.668	-99.2127
62.585712	87.718	-99.5244
63.039234	87.768	-99.8366
63.496040	87.819	-100.1494
63.956161	87.868	-100.4627
64.419617	87.918	-100.7765
64.886421	87.967	-101.0909
65.356621	88.016	-101.4059
65.830215	88.064	-101.7214
66.307251	88.113	-102.0376
66.787743	88.160	-102.3543
67.271713	88.208	-102.6716
67.759193	88.255	-102.9896
68.250206	88.303	-103.3081
68.744774	88.350	-103.6273
69.242928	88.397	-103.9471
69.744690	88.444	-104.2675
70.250084	88.491	-104.5886
70.759148	88.538	-104.9103
71.271896	88.585	-105.2327
71.788361	88.632	-105.5557
72.308571	88.679	-105.8795
72.832550	88.727	-106.2039
73.360321	88.775	-106.5289
73.891922	88.822	-106.8547
74.427376	88.870	-107.1812
74.966705	88.918	-107.5084
75.509949	88.966	-107.8363
76.057121	89.014	-108.1649
76.608261	89.062	-108.4943
77.163399	89.110	-108.8243
77.722557	89.158	-109.1552
78.285767	89.206	-109.4867
78.853058	89.254	-109.8190
79.424461	89.302	-110.1521
80.000000	89.350	-110.4859
80.579712	89.398	-110.8205
81.163628	89.446	-111.1558
81.751770	89.493	-111.4920
82.344177	89.541	-111.8289
82.940880	89.588	-112.1666
83.541901	89.636	-112.5050
84.147285	89.683	-112.8443
84.757050	89.729	-113.1844
85.371231	89.776	-113.5253
85.989868	89.823	-113.8669
86.612984	89.869	-114.2094
87.240616	89.915	-114.5527
87.872803	89.961	-114.8969
88.509560	90.007	-115.2418
89.150940	90.052	-115.5875
89.796967	90.098	-115.9341
90.447670	90.143	-116.2815
91.103088	90.188	-116.6297
91.763260	90.232	-116.9788
92.428215	90.276	-117.3286
93.097992	90.320	-117.6793
93.772614	90.364	-118.0308
94.452133	90.407	-118.3831
95.136566	90.451	-118.7363
95.825966	90.493	-119.0903
96.520363	90.536	-119.4451
97.219788	90.578	-119.8007
97.924286	90.620	-120.1572
98.633881	90.662	-120.5144
99.348625	90.703	-120.8725
100.068542	90.744	-121.2314
100.793686	90.785	-121.5910
101.524078	90.826	-121.9515
102.259766	90.866	-122.3128
103.000778	90.906	-122.6748
103.747162	90.945	-123.0377
104.498962	90.984	-123.4013
105.256203	91.023	-123.7656
106.018929	91.062	-124.1308
106.787186	91.100	-124.4966
107.561012	91.137	-124.8632
108.340446	91.175	-125.2305
109.125526	91.212	-125.5986
109.916290	91.248	-125.9673
110.712791	91.284	-126.3368
111.515060	91.320	-126.7069
112.323143	91.355	-127.0777
113.137085	91.389	-127.4491
113.956924	91.423	-127.8211
114.782700	91.457	-128.1938
115.614464	91.490	-128.5670
116.452255	91.522	-128.9409
117.296112	91.554	-129.3153
118.146095	91.586	-129.6902
119.002228	91.617	-130.0656
119.864563	91.647	-130.4416
120.733154	91.677	-130.8180
121.608040	91.706	-131.1948
122.489258	91.735	-131.5720
123.376869	91.763	-131.9496
124.270905	91.790	-132.3276
125.171425	91.817	-132.7059
126.078468	91.843	-133.0844
126.992081	91.869	-133.4633
127.912323	91.894	-133.8423
128.839233	91.919	-134.2216
129.772842	91.943	-134.6009
130.713242	91.967	-134.9804
131.660431	91.990	-135.3599
132.614502	92.012	-135.7395
133.575485	92.034	-136.1190
134.543427	92.056	-136.4984
135.518387	92.077	-136.8777
136.500412	92.097	-137.2568
137.489548	92.117	-137.6357
138.485855	92.136	-138.0143
139.489380	92.155	-138.3926
140.500168	92.173	-138.7704
141.518295	92.190	-139.1478
142.543793	92.206	-139.5246
143.576721	92.222	-139.9008
144.617142	92.238	-140.2763
145.665100	92.252	-140.6511
146.720642	92.266	-141.0251
147.783844	92.279	-141.3981
148.854752	92.292	-141.7702
149.933411	92.303	-142.1412
151.019897	92.314	-142.5110
152.114243	92.324	-142.8795
153.216522	92.334	-143.2467
154.326797	92.342	-143.6125
155.445114	92.350	-143.9767
156.571533	92.357	-144.3393
157.706116	92.364	-144.7001
158.848923	92.369	-145.0590
160.000000	92.373	-145.4159
161.159424	92.377	-145.7707
162.327255	92.380	-146.1233
163.503540	92.382	-146.4734
164.688354	92.382	-146.8211
165.881760	92.382	-147.1661
167.083801	92.381	-147.5084
168.294571	92.379	-147.8476
169.514099	92.377	-148.1839
170.742462	92.373	-148.5168
171.979736	92.368	-148.8464
173.225967	92.363	-149.1724
174.481232	92.357	-149.4946
175.745605	92.350	-149.8129
177.019119	92.343	-150.1271
178.301880	92.334	-150.4370
179.593933	92.325	-150.7425
180.895340	92.315	-151.0432
182.206177	92.305	-151.3390
183.526520	92.294	-151.6298
184.856430	92.281	-151.9152
186.195984	92.269	-152.1952
187.545227	92.255	-152.4693
188.904266	92.241	-152.7376
190.273132	92.226	-152.9996
191.651932	92.211	-153.2551
193.040726	92.194	-153.5040
194.439575	92.177	-153.7459
195.848572	92.160	-153.9807
197.267761	92.141	-154.2080
198.697250	92.122	-154.4277
200.137085	92.102	-154.6394
201.587372	92.082	-154.8430
203.048157	92.061	-155.0380
204.519531	92.039	-155.2244
206.001556	92.017	-155.4017
207.494324	91.994	-155.5699
208.997925	91.971	-155.7285
210.512405	91.948	-155.8775
212.037857	91.924	-156.0164
213.574371	91.899	-156.1451
215.122025	91.874	-156.2634
216.680893	91.849	-156.3709
218.251053	91.823	-156.4675
219.832581	91.797	-156.5531
221.425583	91.770	-156.6273
223.030121	91.744	-156.6901
224.646286	91.717	-156.7411
226.274170	91.691	-156.7805
227.913849	91.664	-156.8079
229.565399	91.638	-156.8233
231.228928	91.612	-156.8267
232.904510	91.586	-156.8180
234.592224	91.561	-156.7972
236.292191	91.537	-156.7643
238.004456	91.513	-156.7194
239.729126	91.490	-156.6626
241.466309	91.468	-156.5939
243.216080	91.446	-156.5138
244.978516	91.426	-156.4222
246.753738	91.407	-156.3195
248.541809	91.390	-156.2061
250.342850	91.374	-156.0822
252.156937	91.359	-155.9484
253.984161	91.346	-155.8051
255.824646	91.335	-155.6528
257.678467	91.325	-155.4921
259.545685	91.317	-155.3236
261.426483	91.312	-155.1480
263.320862	91.308	-154.9661
265.229004	91.307	-154.7785
267.150970	91.308	-154.5861
269.086853	91.311	-154.3898
271.036774	91.316	-154.1904
273.000824	91.324	-153.9889
274.979095	91.335	-153.7862
276.971710	91.348	-153.5833
278.978760	91.363	-153.3812
281.000336	91.381	-153.1809
283.036591	91.401	-152.9834
285.087585	91.424	-152.7897
287.153442	91.448	-152.6008
289.234283	91.475	-152.4177
291.330200	91.504	-152.2414
293.441284	91.535	-152.0728
295.567688	91.568	-151.9128
297.709503	91.602	-151.7623
299.866821	91.639	-151.6223
302.039795	91.677	-151.4933
304.228485	91.716	-151.3763
306.433044	91.756	-151.2720
308.653595	91.798	-151.1808
310.890228	91.841	-151.1035
313.143066	91.885	-151.0405
315.412231	91.929	-150.9923
317.697845	91.974	-150.9593
320.000000	92.019	-150.9418
322.318848	92.065	-150.9401
324.654510	92.111	-150.9544
327.007080	92.157	-150.9847
329.376709	92.203	-151.0312
331.763519	92.249	-151.0938
334.167603	92.294	-151.1724
336.589142	92.338	-151.2669
339.028198	92.382	-151.3771
341.484924	92.425	-151.5027
343.959473	92.467	-151.6435
346.451935	92.507	-151.7989
348.962463	92.546	-151.9686
351.491211	92.583	-152.1521
354.038239	92.618	-152.3487
356.603760	92.652	-152.5579
359.187866	92.683	-152.7789
361.790680	92.713	-153.0111
364.412354	92.740	-153.2537
367.053040	92.764	-153.5057
369.712860	92.786	-153.7664
372.391968	92.805	-154.0346
375.090454	92.821	-154.3095
377.808533	92.834	-154.5899
380.546265	92.844	-154.8746
383.303864	92.851	-155.1626
386.081451	92.855	-155.4524
388.879150	92.855	-155.7427
391.697144	92.851	-156.0322
394.535522	92.844	-156.3194
397.394501	92.832	-156.6026
400.274170	92.817	-156.8804
403.174744	92.798	-157.1509
406.096313	92.775	-157.4124
409.039062	92.748	-157.6629
412.003113	92.716	-157.9005
414.988647	92.681	-158.1232
417.995850	92.643	-158.3288
421.024811	92.600	-158.5151
424.075714	92.554	-158.6797
427.148743	92.504	-158.8203
430.244049	92.451	-158.9343
433.361786	92.395	-159.0192
436.502106	92.335	-159.0724
439.665161	92.273	-159.0912
442.851166	92.208	-159.0729
446.060242	92.141	-159.0149
449.292572	92.072	-158.9143
452.548340	92.001	-158.7688
455.827698	91.930	-158.5757
459.130798	91.858	-158.3327
462.457855	91.786	-158.0377
465.809021	91.715	-157.6888
469.184448	91.645	-157.2847
472.584381	91.578	-156.8242
476.008911	91.514	-156.3070
479.458252	91.455	-155.7331
482.932617	91.400	-155.1033
486.432159	91.352	-154.4195
489.957031	91.311	-153.6840
493.507477	91.278	-152.9002
497.083618	91.254	-152.0727
500.685699	91.241	-151.2067
504.313873	91.238	-150.3084
507.968323	91.247	-149.3850
511.649292	91.268	-148.4443
515.356934	91.302	-147.4948
519.091370	91.349	-146.5453
522.852966	91.409	-145.6050
526.641724	91.482	-144.6831
530.458008	91.567	-143.7884
534.301941	91.665	-142.9297
538.173706	91.773	-142.1150
542.073547	91.893	-141.3516
546.001648	92.021	-140.6461
549.958191	92.159	-140.0040
553.943420	92.303	-139.4299
557.957520	92.454	-138.9277
562.000671	92.610	-138.4998
566.073181	92.770	-138.1483
570.175171	92.933	-137.8739
574.306885	93.097	-137.6768
578.468567	93.262	-137.5566
582.660400	93.427	-137.5121
586.882568	93.590	-137.5416
591.135376	93.752	-137.6431
595.419006	93.911	-137.8142
599.733643	94.066	-138.0520
604.079590	94.217	-138.3537
608.456970	94.363	-138.7161
612.866089	94.504	-139.1360
617.307190	94.639	-139.6100
621.780457	94.768	-140.1345
626.286133	94.890	-140.7061
630.824463	95.004	-141.3213
635.395691	95.111	-141.9764
640.000000	95.211	-142.6678
644.637695	95.302	-143.3919
649.309021	95.385	-144.1450
654.014160	95.459	-144.9232
658.753418	95.525	-145.7228
663.527039	95.582	-146.5400
668.335205	95.630	-147.3706
673.178284	95.668	-148.2108
678.056396	95.697	-149.0561
682.969849	95.716	-149.9023
687.918945	95.725	-150.7449
692.903870	95.725	-151.5790
697.924927	95.714	-152.3998
702.982422	95.693	-153.2019
708.076477	95.662	-153.9799
713.207520	95.620	-154.7279
718.375732	95.569	-155.4399
723.581360	95.508	-156.1093
728.824707	95.437	-156.7295
734.106079	95.357	-157.2931
739.425720	95.269	-157.7930
744.783936	95.172	-158.2212
750.180908	95.068	-158.5700
755.617065	94.958	-158.8316
761.092529	94.843	-158.9982
766.607727	94.723	-159.0624
772.162903	94.602	-159.0175
777.758301	94.481	-158.8576
783.394287	94.361	-158.5786
789.071045	94.247	-158.1781
794.789001	94.139	-157.6562
800.548340	94.042	-157.0159
806.349487	93.958	-156.2636
812.192627	93.890	-155.4097
818.078125	93.841	-154.4681
824.006226	93.814	-153.4569
829.977295	93.811	-152.3974
835.991699	93.833	-151.3138
842.049622	93.881	-150.2320
848.151428	93.954	-149.1788
854.297485	94.052	-148.1802
860.488098	94.174	-147.2609
866.723572	94.316	-146.4428
873.004211	94.476	-145.7444
879.330322	94.650	-145.1804
885.702332	94.836	-144.7614
892.120483	95.029	-144.4940
898.585144	95.227	-144.3813
905.096680	95.427	-144.4230
911.655396	95.625	-144.6161
918.261597	95.819	-144.9552
924.915710	96.006	-145.4334
931.618042	96.185	-146.0422
938.368896	96.352	-146.7723
945.168762	96.508	-147.6137
952.017822	96.651	-148.5558
958.916504	96.778	-149.5879
965.865234	96.890	-150.6990
972.864319	96.985	-151.8779
979.914062	97.062	-153.1134
987.014954	97.122	-154.3941
994.167236	97.162	-155.7086
1001.371399	97.184	-157.0453
1008.627747	97.187	-158.3921
1015.936646	97.170	-159.7370
1023.298584	97.133	-161.0675
1030.713867	97.077	-162.3706
1038.182739	97.002	-163.6330
1045.705933	96.908	-164.8411
1053.283447	96.796	-165.9807
1060.916016	96.666	-167.0376
1068.603882	96.520	-167.9972
1076.347412	96.359	-168.8452
1084.147095	96.185	-169.5678
1092.003296	96.000	-170.1521
1099.916382	95.806	-170.5870
1107.886841	95.607	-170.8637
1115.915039	95.407	-170.9768
1124.001343	95.208	-170.9249
1132.146362	95.016	-170.7119
1140.350342	94.834	-170.3472
1148.613770	94.666	-169.8463
1156.937134	94.516	-169.2306
1165.320801	94.387	-168.5269
1173.765137	94.281	-167.7655
1182.270752	94.197	-166.9791
1190.838013	94.137	-166.2001
1199.467285	94.097	-165.4590
1208.159180	94.075	-164.7817
1216.913940	94.068	-164.1889
1225.732178	94.070	-163.6941
1234.614380	94.078	-163.3040
1243.560913	94.087	-163.0182
1252.572266	94.092	-162.8299
1261.648926	94.092	-162.7267
1270.791382	94.081	-162.6914
1280.000000	94.058	-162.7032
1289.275391	94.021	-162.7383
1298.618042	93.969	-162.7715
1308.028320	93.902	-162.7763
1317.506836	93.821	-162.7263
1327.054077	93.726	-162.5963
1336.670410	93.622	-162.3627
1346.356567	93.509	-162.0055
1356.112793	93.393	-161.5087
1365.939697	93.278	-160.8622
1375.837891	93.168	-160.0625
1385.807739	93.069	-159.1138
1395.849854	92.987	-158.0282
1405.964844	92.925	-156.8253
1416.152954	92.888	-155.5315
1426.415039	92.878	-154.1783
1436.751465	92.897	-152.7997
1447.162720	92.945	-151.4300
1457.649414	93.022	-150.1018
1468.212158	93.124	-148.8437
1478.851440	93.250	-147.6793
1489.567871	93.396	-146.6270
1500.361816	93.560	-145.7002
1511.234131	93.737	-144.9079
1522.185059	93.926	-144.2565
1533.215454	94.123	-143.7499
1544.325806	94.327	-143.3915
1555.516602	94.535	-143.1844
1566.788574	94.746	-143.1316
1578.142090	94.956	-143.2365
1589.578003	95.164	-143.5020
1601.096680	95.368	-143.9304
1612.698975	95.563	-144.5226
1624.385254	95.748	-145.2778
1636.156250	95.919	-146.1920
1648.012451	96.073	-147.2589
1659.954590	96.208	-148.4682
1671.983398	96.319	-149.8066
1684.099243	96.403	-151.2567
1696.302856	96.459	-152.7980
1708.594971	96.484	-154.4063
1720.976196	96.475	-156.0541
1733.447144	96.433	-157.7111
1746.008423	96.354	-159.3439
1758.660645	96.240	-160.9171
1771.404663	96.092	-162.3934
1784.240967	95.910	-163.7349
1797.170288	95.696	-164.9041
1810.193359	95.456	-165.8658
1823.310791	95.194	-166.5895
1836.523193	94.915	-167.0517
1849.831421	94.628	-167.2389
1863.236084	94.339	-167.1500
1876.737793	94.056	-166.7974
1890.337524	93.788	-166.2067
1904.035645	93.539	-165.4143
1917.833008	93.313	-164.4626
1931.730469	93.111	-163.3936
1945.728638	92.933	-162.2431
1959.828125	92.774	-161.0348
1974.029907	92.633	-159.7768
1988.334473	92.505	-158.4625
2002.742798	92.389	-157.0734
2017.255493	92.286	-155.5858
2031.873291	92.202	-153.9792
2046.597168	92.142	-152.2460
2061.427734	92.115	-150.3997
2076.365479	92.131	-148.4799
2091.411865	92.196	-146.5517
2106.566895	92.314	-144.6995
2121.832031	92.480	-143.0152
2137.207764	92.688	-141.5847
2152.694824	92.925	-140.4747
2168.294189	93.177	-139.7245
2184.006592	93.428	-139.3424
2199.832764	93.666	-139.3082
2215.773682	93.879	-139.5781
2231.830078	94.060	-140.0919
2248.002686	94.202	-140.7796
2264.292725	94.306	-141.5683
2280.700684	94.370	-142.3871
2297.227539	94.399	-143.1727
2313.874268	94.398	-143.8730
2330.641602	94.372	-144.4514
2347.530273	94.331	-144.8894
2364.541504	94.282	-145.1878
2381.676025	94.233	-145.3657
2398.934570	94.188	-145.4573
2416.318359	94.151	-145.5052
2433.827881	94.120	-145.5532
2451.464355	94.092	-145.6382
2469.228760	94.063	-145.7833
2487.121826	94.024	-145.9933
2505.144531	93.969	-146.2536
2523.297852	93.894	-146.5307
2541.582764	93.792	-146.7763
2560.000000	93.664	-146.9318
2578.550781	93.511	-146.9348
2597.236084	93.337	-146.7263
2616.056641	93.150	-146.2575
2635.013672	92.960	-145.4979
2654.108154	92.781	-144.4408
2673.340820	92.625	-143.1074
2692.713135	92.504	-141.5470
2712.225586	92.428	-139.8323
2731.879395	92.401	-138.0509
2751.675781	92.424	-136.2936
2771.615479	92.490	-134.6430
2791.699707	92.592	-133.1636
2811.929688	92.718	-131.8957
2832.305908	92.855	-130.8536
2852.830078	92.994	-130.0269
2873.502930	93.125	-129.3842
2894.325439	93.242	-128.8789
2915.298828	93.343	-128.4552
2936.424316	93.427	-128.0556
2957.702881	93.498	-127.6289
2979.135742	93.562	-127.1382
3000.723633	93.628	-126.5681
3022.468262	93.703	-125.9291
3044.370117	93.794	-125.2571
3066.430908	93.906	-124.6074
3088.651611	94.035	-124.0438
3111.033203	94.178	-123.6240
3133.577148	94.325	-123.3868
3156.284180	94.464	-123.3417
3179.156006	94.584	-123.4663
3202.193359	94.678	-123.7085
3225.397949	94.740	-123.9943
3248.770508	94.770	-124.2397
3272.312500	94.773	-124.3637
3296.024902	94.757	-124.3019
3319.909180	94.735	-124.0192
3343.966797	94.721	-123.5175
3368.198486	94.728	-122.8377
3392.605713	94.765	-122.0534
3417.189941	94.835	-121.2561
3441.952393	94.935	-120.5357
3466.894287	95.054	-119.9615
3492.016846	95.179	-119.5662
3517.321289	95.297	-119.3399
3542.809326	95.396	-119.2308
3568.481934	95.471	-119.1559
3594.340576	95.522	-119.0172
3620.386719	95.557	-118.7246
3646.621582	95.591	-118.2204
3673.046387	95.643	-117.5014
3699.662842	95.729	-116.6294
3726.472168	95.862	-115.7232
3753.475586	96.041	-114.9294
3780.675049	96.252	-114.3806
3808.071289	96.473	-114.1539
3835.666016	96.682	-114.2474
3863.460938	96.858	-114.5800
3891.457275	96.994	-115.0152
3919.656250	97.092	-115.4003
3948.059814	97.165	-115.6123
3976.668945	97.234	-115.5957
4005.485596	97.320	-115.3818
4034.510986	97.437	-115.0758
4063.746582	97.586	-114.8152
4093.194336	97.756	-114.7119
4122.855469	97.926	-114.8062
4152.730957	98.080	-115.0505
4182.823730	98.210	-115.3313
4213.133789	98.321	-115.5201
4243.664062	98.432	-115.5314
4274.415527	98.564	-115.3672
4305.389648	98.737	-115.1231
4336.588379	98.954	-114.9538
4368.013184	99.204	-115.0099
4399.665527	99.468	-115.3787
4431.547363	99.722	-116.0573
4463.660156	99.952	-116.9677
4496.005371	100.155	-118.0011
4528.585449	100.336	-119.0673
4561.401367	100.505	-120.1253
4594.455078	100.670	-121.1833
4627.748535	100.832	-122.2734
4661.283203	100.992	-123.4165
4695.060547	101.145	-124.6051
4729.083008	101.295	-125.8135
4763.352051	101.449	-127.0340
4797.869141	101.617	-128.3116
4832.636719	101.802	-129.7517
4867.655762	101.993	-131.4857
4902.928711	102.166	-133.6052
4938.457520	102.292	-136.0970
4974.243652	102.342	-138.8146
5010.289062	102.305	-141.5011
5046.595703	102.189	-143.8637
5083.165527	102.028	-145.6808
5120.000000	101.870	-146.9044
5157.101562	101.768	-147.7060
5194.472168	101.747	-148.4230
5232.113281	101.794	-149.4163
5270.027344	101.865	-150.9101
5308.216309	101.907	-152.9031
5346.681641	101.881	-155.1885
5385.426270	101.777	-157.4602
5424.451172	101.609	-159.4459
5463.758789	101.411	-161.0145
5503.351562	101.222	-162.2113
5543.230957	101.065	-163.2086
5583.399414	100.942	-164.2001
5623.859375	100.838	-165.3044
5664.611816	100.733	-166.5349
5705.660156	100.617	-167.8394
5747.005859	100.486	-169.1637
5788.650879	100.342	-170.4880
5830.597656	100.187	-171.8154
5872.848633	100.016	-173.1418
5915.405762	99.827	-174.4450
5958.271484	99.619	-175.7016
6001.447266	99.393	-176.9039
6044.936523	99.144	-178.0411
6088.740234	98.863	-179.0541
6132.861816	98.548	-179.8175
6177.303223	98.207	179.8081
6222.066406	97.865	179.8817
6267.154297	97.550	-179.6639
6312.568359	97.275	-178.9538
6358.312012	97.038	-178.0495
6404.386719	96.840	-176.9146
6450.795898	96.704	-175.5310
6497.541016	96.660	-174.0510
6544.625000	96.717	-172.7932
6592.049805	96.841	-172.0471
6639.818359	96.980	-171.8743
6687.933594	97.100	-172.1114
6736.396973	97.205	-172.5656
6785.211426	97.311	-173.2039
6834.379883	97.421	-174.1526
6883.904785	97.509	-175.5240
6933.788574	97.542	-177.2488
6984.033691	97.499	-179.0776
7034.642578	97.395	179.2515
7085.618652	97.262	177.8326
7136.963867	97.127	176.5610
7188.681152	96.990	175.2822
7240.773438	96.831	173.9774
7293.243164	96.636	172.7977
7346.092773	96.421	171.9034
7399.325684	96.223	171.2701
7452.944336	96.062	170.6738
7506.951172	95.924	169.8884
7561.350098	95.771	168.8962
7616.142578	95.578	167.8878
7671.332031	95.354	167.0523
7726.921875	95.125	166.3858
7782.914551	94.900	165.7284
7839.312500	94.653	165.0019
7896.119629	94.349	164.3950
7953.337891	93.981	164.2806
8010.971191	93.590	164.9300
8069.021973	93.243	166.2987
8127.493164	92.991	168.0909
8186.388672	92.843	170.0003
8245.710938	92.785	171.8619
8305.461914	92.805	173.6124
8365.647461	92.901	175.1878
8426.267578	93.067	176.4821
8487.328125	93.288	177.3746
8548.831055	93.542	177.7892
8610.779297	93.806	177.7366
8673.176758	94.067	177.2809
8736.026367	94.322	176.4649
8799.331055	94.566	175.2986
8863.094727	94.793	173.8052
8927.320312	95.005	171.9973
8992.010742	95.202	169.7861
9057.170898	95.358	167.0283
9122.802734	95.423	163.7545
9188.910156	95.356	160.3088
9255.497070	95.161	157.1863
9322.566406	94.881	154.7317
9390.121094	94.576	152.9990
9458.166016	94.300	151.8190
9526.704102	94.083	150.9156
9595.738281	93.930	149.9973
9665.273438	93.819	148.8483
9735.311523	93.722	147.3792
9805.857422	93.610	145.5960
9876.915039	93.460	143.5663
9948.487305	93.254	141.4291
10020.578125	92.987	139.3649
10093.191406	92.667	137.5042
10166.331055	92.308	135.8919
10240.000000	91.911	134.5634
10314.203125	91.474	133.6149
10388.944336	91.003	133.1946
10464.226562	90.508	133.4868
10540.054688	90.020	134.7169
10616.432617	89.608	137.0623
10693.363281	89.397	140.4012
10770.852539	89.505	144.0732
10848.902344	89.930	147.0119
10927.517578	90.528	148.3752
11006.703125	91.154	148.0693
11086.461914	91.759	146.5131
11166.798828	92.354	144.0144
11247.718750	92.944	140.5722
11329.223633	93.513	136.0589
11411.320312	94.022	130.3489
11494.011719	94.418	123.4805
11577.301758	94.667	115.8376
11661.195312	94.806	107.9005
11745.697266	94.900	99.7338
11830.811523	94.976	91.0101
11916.542969	95.013	81.5140
12002.894531	95.008	71.2167
12089.873047	94.975	59.8963
12177.480469	94.876	47.2152
12265.723633	94.628	33.2984
12354.606445	94.180	18.8577
12444.132812	93.568	4.5994
12534.308594	92.892	-9.2967
12625.136719	92.241	-23.0783
12716.624023	91.652	-36.9958
12808.773438	91.115	-51.0129
12901.591797	90.622	-64.7909
12995.082031	90.224	-77.9972
13089.250000	90.034	-90.8779
13184.099609	90.110	-104.4970
13279.636719	90.335	-120.1858
13375.867188	90.478	-138.7172
13472.793945	90.317	-159.8227
13570.422852	89.691	177.8657
13668.759766	88.522	156.2886
13767.809570	86.818	136.8534
13867.577148	84.670	119.4174
13968.067383	82.249	102.0398
14069.285156	79.818	81.8541
14171.237305	77.721	56.9819
14273.927734	76.295	28.1714
14377.362305	75.705	-1.4218
14481.546875	75.803	-28.0849
14586.486328	76.291	-49.4285
14692.185547	76.979	-65.1475
14798.651367	77.785	-76.6891
14905.888672	78.590	-86.2848
15013.902344	79.190	-95.6096
15122.700195	79.398	-104.5054
15232.285156	79.219	-111.2027
15342.664062	78.921	-114.7471
15453.843750	78.813	-116.4739
15565.829102	78.928	-118.2501
15678.625000	79.121	-120.6847
15792.239258	79.322	-123.5282
15906.675781	79.548	-126.7736
16021.942383	79.769	-130.9773
16138.043945	79.849	-136.4847
16254.986328	79.636	-142.4773
16372.777344	79.088	-146.9825
16491.421875	78.363	-147.5682
16610.923828	78.023	-142.5540
16731.294922	78.838	-133.4573
16852.535156	80.577	-126.1179
16974.656250	82.280	-126.5706
17097.662109	83.479	-135.6577
17221.558594	84.178	-150.0168
17346.353516	84.456	-166.7417
17472.052734	84.269	175.7644
17598.662109	83.539	159.4462
17726.189453	82.255	146.6807
17854.640625	80.504	138.9561
17984.021484	78.525	135.4624
18114.341797	76.680	133.5674
18245.605469	75.137	131.6497
18377.820312	73.670	131.2275
18510.994141	72.066	135.2295
18645.132812	70.652	143.6680
18780.242188	70.165	152.5736
18916.332031	70.677	157.5083
19053.408203	71.512	156.5835
19191.476562	72.161	150.2867
19330.546875	72.393	140.2068
19470.623047	72.106	128.5703
19611.714844	71.282	117.9811
19753.830078	69.962	110.8777
19896.974609	68.387	108.1301
