* Measurement data measured by REW V5.20.9
* Source: Microphone (USB Audio CODEC ), MICROPHONE (Master Volume), R, volume: 0.700
* Format: 512k Log Swept Sine, 1 sweep at -15.0 dBFS, at 48000 Hz
* Dated: 19:35:17 21/08/2022
* Sense Resistor: 100.0
* Lead resistance: 0.000
* Input resistance: 20000.000
* Calibration factor: 1.0002
* Note: 
* Measurement: Tweeter Impedance
* Smoothing: None
* Frequency Step: 1/96 octave
* Start Frequency: 302.040 Hz
*
* Freq(Hz)	Z(Ohms)	Phase(degrees)
302.039795	7.510346	23.3340
304.228485	7.538024	23.5028
306.433044	7.569717	23.5523
308.653595	7.597721	23.6537
310.890228	7.625499	23.7428
313.143066	7.659248	23.8701
315.412231	7.688903	23.9020
317.697845	7.719425	23.9479
320.000000	7.754364	24.0345
322.318848	7.782959	24.1547
324.654510	7.815936	24.1990
327.007080	7.849442	24.3021
329.376709	7.885827	24.3650
331.763519	7.917072	24.4437
334.167603	7.952682	24.4902
336.589142	7.992760	24.5429
339.028198	8.026363	24.6431
341.484924	8.059295	24.7213
343.959473	8.100386	24.7370
346.451935	8.140253	24.8375
348.962463	8.181378	24.9157
351.491211	8.218580	24.9697
354.038239	8.254795	25.0028
356.603760	8.299714	25.0848
359.187866	8.342453	25.1077
361.790680	8.398186	25.1381
364.412354	8.434539	25.1777
367.053040	8.469978	25.3200
369.712860	8.530388	25.2617
372.391968	8.561757	25.2747
375.090454	8.615773	25.3126
377.808533	8.662439	25.3738
380.546265	8.712077	25.4007
383.303864	8.757847	25.3960
386.081451	8.813559	25.4784
388.879150	8.867560	25.4252
391.697144	8.914106	25.5034
394.535522	8.965696	25.4550
397.394501	9.015792	25.4686
400.274170	9.073545	25.4331
403.174744	9.131619	25.4287
406.096313	9.189003	25.4551
409.039062	9.250166	25.4597
412.003113	9.306365	25.4164
414.988647	9.369257	25.3757
417.995850	9.432865	25.3373
421.024811	9.494920	25.3387
424.075714	9.552700	25.3334
427.148743	9.624397	25.2219
430.244049	9.688288	25.1439
433.361786	9.751944	25.0627
436.502106	9.825111	25.0764
439.665161	9.887138	24.9455
442.851166	9.961403	24.8710
446.060242	10.045977	24.7786
449.292572	10.107322	24.6872
452.548340	10.185106	24.6162
455.827698	10.257822	24.4344
459.130798	10.333147	24.3227
462.457855	10.407560	24.1692
465.809021	10.499740	24.0598
469.184448	10.567822	23.8951
472.584381	10.652281	23.6705
476.008911	10.735204	23.5534
479.458252	10.815244	23.3362
482.932617	10.905259	23.1281
486.432159	10.987766	22.9588
489.957031	11.073180	22.7150
493.507477	11.154234	22.4876
497.083618	11.246464	22.2602
500.685699	11.333464	21.9581
504.313873	11.427454	21.7688
507.968323	11.512917	21.4234
511.649292	11.606365	21.1857
515.356934	11.696602	20.8433
519.091370	11.794659	20.4678
522.852966	11.878433	20.2047
526.641724	11.986030	19.8439
530.458008	12.059816	19.4410
534.301941	12.162357	19.0650
538.173706	12.240670	18.6716
542.073547	12.337627	18.2468
546.001648	12.423209	17.8522
549.958191	12.510995	17.3572
553.943420	12.603226	16.9620
557.957520	12.697126	16.4798
562.000671	12.785652	15.9706
566.073181	12.869085	15.5060
570.175171	12.959654	14.9605
574.306885	13.043153	14.4404
578.468567	13.102882	13.8620
582.660400	13.182823	13.3162
586.882568	13.258868	12.7336
591.135376	13.333365	12.1071
595.419006	13.410099	11.5197
599.733643	13.469162	10.8696
604.079590	13.521409	10.3179
608.456970	13.584002	9.6022
612.866089	13.636823	8.9732
617.307190	13.676018	8.3076
621.780457	13.732294	7.6121
626.286133	13.767801	6.9033
630.824463	13.802277	6.2601
635.395691	13.816954	5.5373
640.000000	13.842112	4.8638
644.637695	13.863613	4.1699
649.309021	13.863460	3.4504
654.014160	13.880166	2.7463
658.753418	13.886728	2.0154
663.527039	13.891109	1.3194
668.335205	13.874562	0.5962
673.178284	13.864348	-0.1331
678.056396	13.840052	-0.8134
682.969849	13.819872	-1.6143
687.918945	13.782179	-2.2693
692.903870	13.744374	-2.9952
697.924927	13.704167	-3.7058
702.982422	13.656063	-4.3551
708.076477	13.600439	-5.0037
713.207520	13.537138	-5.6993
718.375732	13.472576	-6.3659
723.581360	13.412688	-6.9787
728.824707	13.340693	-7.6044
734.106079	13.263697	-8.2158
739.425720	13.179512	-8.7708
744.783936	13.106328	-9.3897
750.180908	13.035041	-10.0653
755.617065	12.950671	-10.4672
761.092529	12.864222	-11.0541
766.607727	12.783024	-11.6415
772.162903	12.675014	-12.1488
777.758301	12.577809	-12.6183
783.394287	12.487308	-13.1368
789.071045	12.382583	-13.5894
794.789001	12.286043	-14.0879
800.548340	12.181494	-14.5015
806.349487	12.071682	-14.8670
812.192627	11.959475	-15.2546
818.078125	11.864323	-15.6676
824.006226	11.749834	-15.9807
829.977295	11.635561	-16.3717
835.991699	11.534427	-16.5997
842.049622	11.427147	-16.8733
848.151428	11.334220	-17.1391
854.297485	11.220672	-17.3891
860.488098	11.120577	-17.7013
866.723572	11.015449	-17.8296
873.004211	10.921294	-18.0246
879.330322	10.796757	-18.1471
885.702332	10.682974	-18.1297
892.120483	10.607035	-18.0537
898.585144	10.559936	-18.0027
905.096680	10.523539	-18.1201
911.655396	10.482010	-18.3526
918.261597	10.413836	-18.6703
924.915710	10.333284	-18.9874
931.618042	10.223270	-19.1726
938.368896	10.121737	-19.2691
945.168762	10.047936	-19.3255
952.017822	9.961830	-19.3041
958.916504	9.899988	-19.4953
965.865234	9.822817	-19.5573
972.864319	9.737175	-19.6378
979.914062	9.663918	-19.6597
987.014954	9.579226	-19.6727
994.167236	9.505529	-19.7336
1001.371399	9.422630	-19.7578
1008.627747	9.338362	-19.6038
1015.936646	9.266590	-19.5936
1023.298584	9.207218	-19.3907
1030.713867	9.169983	-19.2497
1038.182739	9.128597	-19.2677
1045.705933	9.089846	-19.1925
1053.283447	9.035009	-19.3246
1060.916016	8.978894	-19.3356
1068.603882	8.932640	-19.3802
1076.347412	8.871019	-19.3501
1084.147095	8.815294	-19.3973
1092.003296	8.748427	-19.3555
1099.916382	8.687731	-19.2472
1107.886841	8.629970	-19.1661
1115.915039	8.571589	-19.0653
1124.001343	8.527843	-19.0063
1132.146362	8.477659	-18.9453
1140.350342	8.431873	-18.8073
1148.613770	8.371955	-18.7479
1156.937134	8.325169	-18.6829
1165.320801	8.275673	-18.5560
1173.765137	8.239821	-18.3787
1182.270752	8.189462	-18.2899
1190.838013	8.145387	-18.1032
1199.467285	8.102251	-17.9669
1208.159180	8.066945	-17.8377
1216.913940	8.033702	-17.6859
1225.732178	7.990474	-17.6144
1234.614380	7.954999	-17.4843
1243.560913	7.908502	-17.4168
1252.572266	7.871919	-17.1618
1261.648926	7.842139	-17.1175
1270.791382	7.805769	-16.8733
1280.000000	7.755736	-16.7373
1289.275391	7.736875	-16.6299
1298.618042	7.711955	-16.4053
1308.028320	7.672332	-16.2719
1317.506836	7.646130	-16.0201
1327.054077	7.615902	-15.9763
1336.670410	7.580862	-15.7623
1346.356567	7.546828	-15.6278
1356.112793	7.529586	-15.4017
1365.939697	7.501229	-15.1642
1375.837891	7.471490	-15.0662
1385.807739	7.453130	-14.7950
1395.849854	7.438026	-14.5525
1405.964844	7.415545	-14.4892
1416.152954	7.396545	-14.3653
1426.415039	7.369685	-14.1712
1436.751465	7.346902	-13.9597
1447.162720	7.327574	-13.8474
1457.649414	7.296482	-13.5461
1468.212158	7.288912	-13.4132
1478.851440	7.273826	-13.1728
1489.567871	7.261384	-13.0634
1500.361816	7.233606	-12.8213
1511.234131	7.232707	-12.6077
1522.185059	7.209432	-12.4714
1533.215454	7.196537	-12.2985
1544.325806	7.186278	-12.1387
1555.516602	7.187419	-11.9816
1566.788574	7.173314	-11.7253
1578.142090	7.168204	-11.5518
1589.578003	7.176514	-11.5116
1601.096680	7.154299	-11.5101
1612.698975	7.148897	-11.3372
1624.385254	7.134420	-11.1980
1636.156250	7.105835	-11.0586
1648.012451	7.104781	-10.9744
1659.954590	7.098711	-10.8519
1671.983398	7.089633	-10.7430
1684.099243	7.085361	-10.5906
1696.302856	7.084548	-10.6326
1708.594971	7.063716	-10.5307
1720.976196	7.053216	-10.4152
1733.447144	7.039570	-10.3966
1746.008423	7.012544	-10.3324
1758.660645	7.004170	-10.2091
1771.404663	6.969325	-10.2360
1784.240967	6.953585	-10.1296
1797.170288	6.940054	-9.9106
1810.193359	6.907326	-9.7282
1823.310791	6.893370	-9.4693
1836.523193	6.876946	-9.4376
1849.831421	6.849254	-9.2194
1863.236084	6.855842	-9.1518
1876.737793	6.804347	-8.8389
1890.337524	6.797780	-8.5529
1904.035645	6.779521	-8.2457
1917.833008	6.775624	-7.8157
1931.730469	6.771415	-7.4732
1945.728638	6.789376	-7.1370
1959.828125	6.821993	-6.8224
1974.029907	6.853325	-6.7071
1988.334473	6.872618	-6.6556
2002.742798	6.883780	-6.7310
2017.255493	6.898835	-6.7377
2031.873291	6.899332	-6.7692
2046.597168	6.907282	-6.7249
2061.427734	6.904449	-6.7912
2076.365479	6.896607	-6.8031
2091.411865	6.906626	-6.8600
2106.566895	6.893034	-6.8735
2121.832031	6.884821	-6.8445
2137.207764	6.853579	-6.8978
2152.694824	6.844506	-6.8768
2168.294189	6.835459	-6.9708
2184.006592	6.832976	-6.8385
2199.832764	6.805421	-6.7135
2215.773682	6.800519	-6.7981
2231.830078	6.788325	-6.6577
2248.002686	6.758377	-6.6909
2264.292725	6.749187	-6.5852
2280.700684	6.729433	-6.5617
2297.227539	6.710570	-6.5417
2313.874268	6.700478	-6.4977
2330.641602	6.681933	-6.4438
2347.530273	6.668667	-6.1744
2364.541504	6.637579	-6.2314
2381.676025	6.622223	-6.0260
2398.934570	6.599675	-5.8861
2416.318359	6.592275	-5.7096
2433.827881	6.578763	-5.6003
2451.464355	6.547682	-5.6150
2469.228760	6.538522	-5.3993
2487.121826	6.524424	-5.1562
2505.144531	6.516228	-5.1223
2523.297852	6.495639	-4.9748
2541.582764	6.487239	-4.7261
2560.000000	6.470622	-4.5745
2578.550781	6.459723	-4.4147
2597.236084	6.449939	-4.2232
2616.056641	6.409135	-3.9636
2635.013672	6.419764	-3.9807
2654.108154	6.395568	-3.6126
2673.340820	6.389072	-3.5272
2692.713135	6.379436	-3.3395
2712.225586	6.370398	-3.0784
2731.879395	6.360064	-3.0406
2751.675781	6.349271	-2.8137
2771.615479	6.355700	-2.5580
2791.699707	6.332861	-2.2998
2811.929688	6.334098	-2.0720
2832.305908	6.325908	-1.8430
2852.830078	6.308192	-1.7291
2873.502930	6.297581	-1.5316
2894.325439	6.284109	-1.2412
2915.298828	6.287405	-1.0960
2936.424316	6.285742	-0.9192
2957.702881	6.286876	-0.6358
2979.135742	6.278934	-0.5644
3000.723633	6.266674	-0.2879
3022.468262	6.269663	-0.0652
3044.370117	6.261398	0.1690
3066.430908	6.269106	0.2734
3088.651611	6.258311	0.6072
3111.033203	6.261383	0.5941
3133.577148	6.244750	0.8608
3156.284180	6.248578	1.0913
3179.156006	6.250111	1.2778
3202.193359	6.246883	1.5130
3225.397949	6.257419	1.6467
3248.770508	6.240235	1.7529
3272.312500	6.236437	2.2592
3296.024902	6.239286	2.3778
3319.909180	6.252234	2.4566
3343.966797	6.251563	2.6012
3368.198486	6.248085	2.8488
3392.605713	6.256832	3.0273
3417.189941	6.253093	3.2367
3441.952393	6.259103	3.4246
3466.894287	6.261635	3.6342
3492.016846	6.255400	3.7431
3517.321289	6.258111	4.0392
3542.809326	6.265029	4.3291
3568.481934	6.279713	4.3524
3594.340576	6.254217	4.5058
3620.386719	6.259671	4.5648
3646.621582	6.262474	4.7791
3673.046387	6.268846	5.0038
3699.662842	6.276484	5.1656
3726.472168	6.270205	5.3918
3753.475586	6.268939	5.5297
3780.675049	6.284851	5.6096
3808.071289	6.285183	6.0731
3835.666016	6.285547	6.0801
3863.460938	6.280797	6.2100
3891.457275	6.300549	6.4182
3919.656250	6.295987	6.8049
3948.059814	6.291519	6.7711
3976.668945	6.315555	6.8675
4005.485596	6.313413	7.2940
4034.510986	6.310924	7.4431
4063.746582	6.304408	7.4274
4093.194336	6.318725	7.6897
4122.855469	6.312483	7.8951
4152.730957	6.344049	8.0903
4182.823730	6.341108	8.1632
4213.133789	6.353029	8.4198
4243.664062	6.311549	8.5209
4274.415527	6.359432	8.8722
4305.389648	6.352487	8.8461
4336.588379	6.375484	9.0768
4368.013184	6.372482	9.3421
4399.665527	6.355685	9.3642
4431.547363	6.381413	9.4479
4463.660156	6.397765	9.6178
4496.005371	6.406790	9.8192
4528.585449	6.387266	9.8739
4561.401367	6.398651	10.0396
4594.455078	6.416186	10.3199
4627.748535	6.414463	10.6215
4661.283203	6.425612	10.6404
4695.060547	6.418944	10.7907
4729.083008	6.440908	11.1092
4763.352051	6.429782	11.1672
4797.869141	6.442366	11.3238
4832.636719	6.464414	11.5791
4867.655762	6.450244	11.5962
4902.928711	6.476040	11.7884
4938.457520	6.491132	12.0646
4974.243652	6.468029	12.1019
5010.289062	6.499475	12.2844
5046.595703	6.499404	12.3162
5083.165527	6.512713	12.5446
5120.000000	6.519133	12.7627
5157.101562	6.536583	12.8233
5194.472168	6.539854	13.2351
5232.113281	6.553584	13.1542
5270.027344	6.530986	13.5063
5308.216309	6.546696	13.7524
5346.681641	6.559272	13.6342
5385.426270	6.567001	13.9029
5424.451172	6.563644	14.1152
5463.758789	6.592227	14.1930
5503.351562	6.603607	14.2911
5543.230957	6.610313	14.6028
5583.399414	6.608048	14.9186
5623.859375	6.631971	14.9748
5664.611816	6.635504	15.1109
5705.660156	6.633484	15.2399
5747.005859	6.673974	15.3711
5788.650879	6.671649	15.4756
5830.597656	6.681863	15.5516
5872.848633	6.700886	15.8294
5915.405762	6.706975	16.0590
5958.271484	6.709113	16.0843
6001.447266	6.709140	16.2653
6044.936523	6.715676	16.3479
6088.740234	6.752219	16.7244
6132.861816	6.761701	16.7335
6177.303223	6.753232	16.9502
6222.066406	6.768484	17.0403
6267.154297	6.795726	17.1954
6312.568359	6.800533	17.3336
6358.312012	6.810152	17.7224
6404.386719	6.834805	17.7477
6450.795898	6.823618	17.7132
6497.541016	6.847992	17.9599
6544.625000	6.852705	18.3698
6592.049805	6.869523	18.3963
6639.818359	6.875943	18.4112
6687.933594	6.895886	18.6812
6736.396973	6.904641	18.8871
6785.211426	6.923412	18.7878
6834.379883	6.944844	19.0956
6883.904785	6.941111	19.0879
6933.788574	6.948047	19.3212
6984.033691	6.973658	19.4663
7034.642578	6.983810	19.6192
7085.618652	7.027105	19.7933
7136.963867	7.027528	19.8914
7188.681152	7.038566	20.2287
7240.773438	7.030309	20.3909
7293.243164	7.055058	20.4922
7346.092773	7.083052	20.6690
7399.325684	7.071496	20.6266
7452.944336	7.120495	20.8736
7506.951172	7.133872	20.8866
7561.350098	7.154119	21.2267
7616.142578	7.128935	21.3191
7671.332031	7.154748	21.3040
7726.921875	7.203621	21.5968
7782.914551	7.216046	21.7164
7839.312500	7.206737	21.9516
7896.119629	7.231884	22.1808
7953.337891	7.239064	22.3068
8010.971191	7.276947	22.4431
8069.021973	7.289397	22.5007
8127.493164	7.285186	22.7107
8186.388672	7.306557	22.7569
8245.710938	7.340936	22.9572
8305.461914	7.354694	23.1184
8365.647461	7.365260	23.1827
8426.267578	7.386633	23.4490
8487.328125	7.400640	23.5180
8548.831055	7.436315	23.5242
8610.779297	7.450363	23.6673
8673.176758	7.464160	23.9964
8736.026367	7.468657	23.9244
8799.331055	7.507521	24.2562
8863.094727	7.501431	24.3815
8927.320312	7.560778	24.5216
8992.010742	7.575356	24.7741
9057.170898	7.581958	24.6724
9122.802734	7.595029	24.8628
9188.910156	7.617303	24.9970
9255.497070	7.633646	25.0224
9322.566406	7.670216	25.1675
9390.121094	7.694420	25.3070
9458.166016	7.716794	25.5149
9526.704102	7.745172	25.8772
9595.738281	7.734351	25.9053
9665.273438	7.810190	25.8447
9735.311523	7.811296	25.9350
9805.857422	7.850113	26.1902
9876.915039	7.863266	26.3653
9948.487305	7.900789	26.3331
10020.578125	7.932527	26.5489
10093.191406	7.915166	26.6851
10166.331055	7.949891	26.5526
10240.000000	7.988898	26.7292
10314.203125	8.010176	26.9349
10388.944336	8.059258	26.8072
10464.226562	8.063751	27.0022
10540.054688	8.093885	27.0428
10616.432617	8.127211	27.0165
10693.363281	8.170186	27.3552
10770.852539	8.186034	27.2396
10848.902344	8.196052	27.2431
10927.517578	8.194333	27.4875
11006.703125	8.255705	27.4734
11086.461914	8.273731	27.4966
11166.798828	8.296264	27.5100
11247.718750	8.305059	27.6584
11329.223633	8.323151	27.6870
11411.320312	8.369202	27.5710
11494.011719	8.395050	27.7086
11577.301758	8.403347	27.7898
11661.195312	8.404602	27.7094
11745.697266	8.443827	27.8124
11830.811523	8.453114	28.0553
11916.542969	8.481875	28.0493
12002.894531	8.488019	27.9025
12089.873047	8.511091	28.1990
12177.480469	8.512810	28.0440
12265.723633	8.531321	28.1489
12354.606445	8.540792	28.1787
12444.132812	8.573676	28.4680
12534.308594	8.573844	28.2933
12625.136719	8.577850	28.4591
12716.624023	8.604535	28.6769
12808.773438	8.620355	28.5950
12901.591797	8.639490	28.8407
12995.082031	8.644171	28.8223
13089.250000	8.672507	28.9508
13184.099609	8.669811	28.9944
13279.636719	8.679415	28.8995
13375.867188	8.735587	29.1283
13472.793945	8.705993	29.4226
13570.422852	8.734634	29.4552
13668.759766	8.748693	29.7868
13767.809570	8.758993	29.5849
13867.577148	8.764429	29.8400
13968.067383	8.789668	29.8924
14069.285156	8.823135	30.1311
14171.237305	8.838436	30.1519
14273.927734	8.864955	30.4367
14377.362305	8.888502	30.5177
14481.546875	8.857627	30.7554
14586.486328	8.884804	30.9020
14692.185547	8.908524	31.0792
14798.651367	8.964979	31.0148
14905.888672	8.964930	31.3889
15013.902344	9.006926	31.4382
15122.700195	9.031950	31.5905
15232.285156	9.027340	31.6867
15342.664062	9.075403	31.6361
15453.843750	9.064757	31.9621
15565.829102	9.096470	32.0717
15678.625000	9.124419	32.4591
15792.239258	9.157366	32.6146
15906.675781	9.188031	32.5846
16021.942383	9.241999	32.7705
16138.043945	9.287300	32.9590
16254.986328	9.278341	32.9682
16372.777344	9.304952	33.3371
16491.421875	9.342843	33.3347
16610.923828	9.382117	33.1204
16731.294922	9.400590	33.6639
16852.535156	9.427061	33.8080
16974.656250	9.498071	33.6040
17097.662109	9.517550	34.0826
17221.558594	9.512582	34.0786
17346.353516	9.545066	34.3948
17472.052734	9.581947	34.3742
17598.662109	9.630585	34.4378
17726.189453	9.633583	34.5617
17854.640625	9.700951	34.9616
17984.021484	9.720796	34.8586
18114.341797	9.761943	34.8779
18245.605469	9.763325	34.9595
18377.820312	9.805964	35.0092
18510.994141	9.847116	35.1748
18645.132812	9.902824	35.6941
18780.242188	9.899868	35.5408
18916.332031	9.980632	35.7053
19053.408203	9.958784	35.7010
19191.476562	10.059212	35.9041
19330.546875	10.085340	35.9923
19470.623047	10.119843	36.0543
19611.714844	10.144782	36.4569
19753.830078	10.164599	36.3066
19896.974609	10.193172	36.2785
